timestamp_utc,t_s,t_s_recording,trip,leg,acc_x,acc_y,acc_z,acc_raw_x,acc_raw_y,acc_raw_z,grav_x,grav_y,grav_z,gyr_x,gyr_y,gyr_z,gyr_raw_x,gyr_raw_y,gyr_raw_z,mag_x,mag_y,mag_z,mag_raw_x,mag_raw_y,mag_raw_z,ori_qw,ori_qx,ori_qy,ori_qz,ori_roll,ori_pitch,ori_yaw,compass_bearing_deg,acc_magnitude,gyr_magnitude,mag_magnitude
2026-09-17T07:24:16.272871,0.0,0.0,trip2_return,return,0.3153407551249489,0.1414442143015563,-0.1273790102005005,0.07490538601101979,-0.08811953423053187,-1.0124589709333858,0.4180331409016624,-0.9937800053171812,-9.747206461906432,-0.0070351110771298,0.000895972829312,-0.0184610802680253,-0.011616175994277,-0.0012620720081031,-0.0187667626887559,-15.464324951171877,-4.626220703125,-28.20306396484375,-187.48050256118427,77.88519736407298,-387.2979222151976,-0.08588178646501543,-0.025631768177759126,0.04872154705544056,0.994783163340727,0.0428612153494144,0.1015116045757741,-2.9715330407895273,106.6547844795554,0.36833635422235583,0.019776426366785605,32.49553940457871
2026-09-17T07:24:16.282871,0.01,0.01,trip2_return,return,0.33846263545225574,0.11310033152036424,0.00825044264598075,0.07568668963559777,-0.0885210514171343,-0.9983489256719534,0.4181086717087466,-0.9931129934316945,-9.74727148852897,-0.009769078185865414,-0.00024434523189905435,0.004410541112696817,-0.014350143099177983,-0.00240239006739699,0.004104858228222182,-15.464767866973604,-4.626356656287403,-28.202854129556123,-187.67657017687446,77.81461984971509,-387.20108232932387,-0.08585028154099839,-0.025631091178173478,0.04868802167227062,0.9947875415735704,0.04286866466484693,0.10144324011742158,-2.971595564728725,106.65479614069648,0.3569547735934589,0.010721355609282446,32.49558742573482
2026-09-17T07:24:16.292871,0.02,0.02,trip2_return,return,0.26596505769559003,0.07627343702044397,0.0790084154495028,0.07263030695387306,-0.0917943828224351,-0.9882919386401996,0.4184084957695527,-0.9912261080791188,-9.74745050500745,-0.032000851276693484,0.009615574145320592,0.020229411623448983,-0.036581915262517986,0.007457529762196865,0.01992372920271838,-15.571014444475614,-4.660293595538319,-28.15269571574843,-187.5898386533995,77.73964604010311,-387.26888770533793,-0.0859175367196369,-0.025641208874492453,0.048588764147985,0.9947863274543213,0.04289858228012048,0.10124983754753863,-2.9714585030578253,106.66208482953925,0.2877453367506959,0.03906075835423764,32.50767760530123
2026-09-17T07:24:16.302871,0.03,0.03,trip2_return,return,0.1819039689564864,0.04536559343872542,0.07182667837701542,0.06414767527280633,-0.0950066649221789,-0.9865107428449703,0.41998361657070754,-0.9873366298704882,-9.747777118374932,-0.04983748434649954,0.024337490013700863,0.028832467752852545,-0.05441854833232404,0.02217944425628911,0.028526785332121947,-15.463420250949348,-4.787619473410671,-28.226682697118246,-187.4664113046875,77.77606259882567,-387.42491592346965,-0.08605116789708758,-0.025710496067936763,0.04838012667702203,0.9947831573957225,0.04305843261429002,0.10085118809212186,-2.971190802766833,107.20301283909807,0.20076394775169495,0.06250919502660275,32.53896559762535
2026-09-17T07:24:16.312871,0.04,0.04,trip2_return,return,0.0855636068146193,0.0026861132036293525,0.027395883842476088,0.05466602715667157,-0.09864057906326776,-0.9899300788520857,0.42189920905438605,-0.9820748790655378,-9.74822627337854,-0.05973978512457286,0.016312444525537265,0.03073316220860678,-0.06432084911039736,0.014154399688122068,0.030427479787876178,-15.484612747457197,-4.705997320297305,-28.331406925002806,-187.51709917939272,77.9057500225888,-387.2828554422648,-0.08621610399565859,-0.025792426349385108,0.04809922024061049,0.994780377353246,0.043252595003551345,0.10031191328419416,-2.9708592840906216,106.90478396274231,0.08988259267945001,0.06913367509737497,32.62802876465963
2026-09-17T07:24:16.322871,0.05,0.05,trip2_return,return,0.033155097211669114,-0.049687067965394315,-0.06936289020476717,0.04818548401942522,-0.10297911288591237,-0.9976171002630894,0.4223548787139613,-0.9766218915145205,-9.74875417518284,-0.050854850410077444,0.00022681011811094594,0.027598952531752135,-0.05543591439590205,-0.0019312347145834495,0.027293270111021537,-15.511825903407976,-4.609087145455507,-28.07739399168607,-187.4655847794151,77.96025651931366,-387.1231837900064,-0.08637285192759263,-0.025798692631499517,0.04781512693293158,0.9947803132072865,0.04329690833359741,0.09975307077780106,-2.9705365982973966,106.54846097547237,0.09153838392538689,0.057861640435706095,32.40679682622784
2026-09-17T07:24:16.332871,0.06,0.06,trip2_return,return,0.025691854321399844,-0.1012359689429512,-0.182728902226635,0.046013837776663485,-0.10780726397986329,-1.0086643232234862,0.4222720569722587,-0.9727323734844568,-9.749146710527263,-0.027707062112264164,0.006245880217157816,0.027883891654812542,-0.03228812612071641,0.004087835584288663,0.02757820923408194,-15.420394728714276,-4.580888670187534,-28.071705340060728,-187.47717186436176,77.9088313681218,-387.1781871586125,-0.08651200016651855,-0.025783664944665396,0.04761357926761416,0.9947782785719319,0.043286690010055084,0.09935447959206313,-2.9702494039480722,106.54491102696504,0.2104724316751278,0.03980205678601638,32.354192236821575
2026-09-17T07:24:16.342871,0.07,0.07,trip2_return,return,-0.016069931297443694,-0.090863128317937,-0.2084582350348398,0.04281951195605212,-0.10900142816712989,-1.0146937280115627,0.4234079094910198,-0.9714862793874587,-9.749221849960287,-0.002182498420493042,0.023688585856336156,0.029621469730841284,-0.0067635633343460155,0.021530540087598356,0.029315787310110687,-15.536534111967423,-4.656515126528446,-28.08056357155121,-187.54486241245698,77.89086853653288,-387.24635311064503,-0.08666069161169772,-0.025842977688983686,0.04754121066456696,0.9947672583685573,0.04340264419480631,0.0992267784283554,-2.969953796359944,106.68418208119711,0.22796751201315277,0.03799136570648139,32.42815251955999
2026-09-17T07:24:16.352871,0.08,0.08,trip2_return,return,-0.105323266319403,-0.07917609861522741,-0.08645014388791662,0.03567344321650332,-0.1075475393112164,-1.0077725193209865,0.4259134869464992,-0.9718377686644468,-9.749077770572685,0.0025228988242578347,0.029856104910516316,0.02431794348633762,-0.0020581660104328696,0.027698059202150068,0.02401226106560702,-15.481938649331076,-4.5854366831662485,-28.187916020884764,-187.43351826350803,78.01641785329157,-387.29723787045606,-0.08680222836535754,-0.025978862807638465,0.04754445645112683,0.9947512234216136,0.043659805597267634,0.09926280358049827,-2.9696821680812384,106.49815428909179,0.1575927422134585,0.038589045003859686,32.48500059284946
2026-09-17T07:24:16.362871,0.09,0.09,trip2_return,return,-0.1139095946100765,-0.12960499492255506,0.08091545073729313,0.03216764768535402,-0.11044512124920519,-0.9921653111090851,0.42824780571990695,-0.9713506581504758,-9.749023713540579,-0.01689093922967677,0.022977088957686038,0.018910866110161413,-0.021472005010284304,0.020819045017662307,0.018605183689430812,-15.39526338112704,-4.4790539601917825,-28.148508701107588,-187.37129465956298,78.03709615851784,-387.3187312581506,-0.08691757641901465,-0.02610099783857566,0.04750636230404588,0.9947397741931868,0.04389902977996474,0.099212884571608,-2.969460766307641,106.22166928887934,0.19057848939774605,0.034217996757064884,32.394669330754255
2026-09-17T07:24:16.372871,0.1,0.1,trip2_return,return,-0.09716129764521426,-0.187711130196071,0.13316771380272238,0.03316217519507873,-0.11634810807817643,-0.9827397238858655,0.4297494875912466,-0.9682642853426795,-9.749264780756873,-0.04982582662764791,0.009279426421606821,0.01902146456165033,-0.05440689061347241,0.007121381584191621,0.01871578210323964,-15.380733681679432,-4.565842845761771,-28.315719371798487,-187.4303963966309,78.00396586934872,-387.4285948011023,-0.08702150120711429,-0.02616842081324947,0.04733967599783747,0.9947368632740122,0.0440516782072033,0.0988966125001727,-2.969253517176108,106.53388300584308,0.24981878664150142,0.054134433292614796,32.54525853363875
2026-09-17T07:24:16.382871,0.11,0.11,trip2_return,return,-0.10336240373806295,-0.23250503241939047,0.06217554208399981,0.03321373685564783,-0.12117744850001066,-0.9854027956623568,0.42956144796464035,-0.961865493487927,-9.749906522480783,-0.08062186835947928,-0.008184847042423912,0.014507113716842147,-0.0852029323453038,-0.010342891879839113,0.014201430364789042,-15.498357486469176,-4.4051654831014435,-28.217227710795466,-187.5612661614157,78.1413138026755,-387.29449294123975,-0.08711250658427686,-0.026134188447995817,0.04701190900605256,0.9947453421868209,0.044029535243190185,0.09824093781299534,-2.969057843568388,105.86691424311881,0.2619316220701337,0.08232456332878098,32.493330198592865
2026-09-17T07:24:16.392871,0.12,0.12,trip2_return,return,-0.13516513964379556,-0.21190903719024148,-0.06569903614398541,0.030875731764404734,-0.12045100268598519,-0.9960643271098659,0.4282757328010679,-0.9531053140754764,-9.750822958920198,-0.09644460820352721,-0.014043087005606244,0.008996761833233355,-0.1010256721893518,-0.01620113188825552,0.008691078492488676,-15.548842893608454,-4.492754857938208,-28.22157862336246,-187.53864993749045,78.01489720619789,-387.3142009061304,-0.08717703727364218,-0.02603208589588633,0.046569323356880694,0.9947631842796463,0.043893798005773275,0.09734335687384937,-2.9689057751033054,106.11638321962513,0.2597911052520286,0.09787600557676443,32.53319630067532
2026-09-17T07:24:16.402871,0.13,0.13,trip2_return,return,-0.15120087032850307,-0.16520729104562523,-0.1830976688887092,0.028595395126547313,-0.11549386645769626,-1.0084716346883902,0.4267001884068806,-0.9434574558817974,-9.751830166547235,-0.1005420357045979,-0.017198366189184824,0.0023055316691850906,-0.10512309969042238,-0.019356411957922627,0.001999848562213019,-15.434952922572212,-4.474730390985878,-28.17287698687514,-187.41241078877462,78.05106386361004,-387.2424527775054,-0.08721320041539363,-0.02590985059459533,0.046083557240950854,0.9947858277375539,0.04372801574048738,0.09635491758498334,-2.968807820770583,106.16733186694528,0.2892747976495881,0.10202842848676809,32.43411755407617
2026-09-17T07:24:16.412871,0.14,0.14,trip2_return,return,-0.19280066295870796,-0.18899451662543323,-0.20627050575835845,0.025161074306654888,-0.11430590119235964,-1.0148423495272916,0.4242920147825034,-0.9334532365687145,-9.752897709011219,-0.10378251545817378,-0.03243416594070496,-0.004819245834571175,-0.10836357944399838,-0.03459221170944276,-0.005124928694587009,-15.462545293299446,-4.507861473257194,-28.09914347545036,-187.48225463207393,78.02484902733536,-387.18892335921464,-0.08721656121738852,-0.025742100022191117,0.04558418971027068,0.994812895666476,0.043476787430014395,0.09533007055921852,-2.968771407810923,106.25320080735193,0.33976248247504826,0.10883938058216473,32.387852445992124
2026-09-17T07:24:16.422871,0.15,0.15,trip2_return,return,-0.20879269538343076,-0.24880625458123615,-0.24193652435543825,0.0223833651402837,-0.11805978954230718,-1.0175676967910776,0.4201257166108444,-0.9231903609691627,-9.754055088373427,-0.10490807075795833,-0.054034665544221296,-0.019471363583094755,-0.10948913474378293,-0.056192711312959095,-0.019777046003825353,-15.465337112399363,-4.430668863128717,-28.149717373257264,-187.45711033496372,78.12627718432888,-387.2630597478155,-0.0871654621232661,-0.025481254533373916,0.04508083178699134,0.994847026675778,0.043045301193725155,0.09427882592923703,-2.9688360436581474,105.98654873611406,0.40500891815046564,0.1196017658331921,32.42243153696399
2026-09-17T07:24:16.432871,0.16,0.16,trip2_return,return,-0.2077135865292519,-0.24736788216956976,-0.3063564901022055,0.021238183067773787,-0.11930262676903333,-1.023273502808713,0.4146848295730032,-0.9132687611754731,-9.755221713701461,-0.09605849228195815,-0.05939196433521705,-0.034374706020164215,-0.10063955626778275,-0.06155001010395484,-0.03468038844089481,-15.351460213224717,-4.427675284082887,-28.095614247375043,-187.3293014690607,78.10408661541402,-387.19339951152926,-0.08703281623334728,-0.025153505785264707,0.044602551589282724,0.9948885376950165,0.04248343465346192,0.09326263630282824,-2.9690597885157146,106.08874889288836,0.44518546942330217,0.11805193679500316,32.32081649706275
2026-09-17T07:24:16.442871,0.17,0.17,trip2_return,return,-0.207657165404572,-0.2147968705910232,-0.40545196558205165,0.020625681175196683,-0.11571591616915462,-1.0321532446231199,0.4092118565866485,-0.9047324397098007,-9.756248512026282,-0.07543507044978957,-0.0586806100929121,-0.04795163347660752,-0.08001613443561417,-0.060838655861649805,-0.048257315897338116,-15.484954227227325,-4.409313204370046,-28.256077783427564,-187.54355012350328,78.12754441444281,-387.426290565702,-0.08682671020493388,-0.02482727176555362,0.044196798454133754,0.9949328479742101,0.04191899684659244,0.09238841021315937,-2.969433967539409,105.89420419452236,0.5036372606885909,0.10692625032103202,32.52125123756259
2026-09-17T07:24:16.452871,0.18,0.18,trip2_return,return,-0.1908725156139698,-0.18100465721224906,-0.3933973994363135,0.02155222118293219,-0.11146439374812986,-1.035485289760295,0.4048487548169383,-0.8987820108730922,-9.756980492529106,-0.04180455749195661,-0.03877576404055525,-0.0625934777022264,-0.04638562154566577,-0.04093380967352394,-0.06289916012295699,-15.460130773027238,-4.38405844450425,-28.35822407638577,-187.45609555535435,78.15338629141368,-387.50510644218843,-0.08655083238478439,-0.024566248052639815,0.04391956299933041,0.9949756403330008,0.041469452673147715,0.09177905466874864,-2.969958344973573,105.83202739307573,0.4732404431497622,0.08467068179060705,32.59485365407304
2026-09-17T07:24:16.462871,0.19,0.19,trip2_return,return,-0.1504290277687336,-0.17757581258036695,-0.3563079697665481,0.024296054891223242,-0.10956808964624482,-1.0328310897458974,0.40263632611334405,-0.8961085856667953,-9.75731819598965,-0.008514499818802446,-0.021133341954174947,-0.0733302870574716,-0.013095564807579549,-0.02329138593189747,-0.0736359694782022,-15.571029122864536,-4.29882560798467,-28.280785795311097,-187.62934789853838,78.27416062155162,-387.35667726131766,-0.08621026320923052,-0.02442666072752628,0.04380138797660099,0.9950138527550361,0.041241662839372646,0.09150529251783766,-2.9706282923125795,105.43372816291469,0.4255789361894963,0.07678831844263595,32.56899898297812
2026-09-17T07:24:16.472871,0.2,0.2,trip2_return,return,-0.04562459538947865,-0.17369143163349007,-0.3167779929385702,0.03213409222934433,-0.10874418905864285,-1.028464625762081,0.4019794897575041,-0.8967281074694838,-9.757288333088228,0.02525576682701241,-0.006041222940739249,-0.07439115217453135,0.02067470112930767,-0.00819926777815454,-0.07469683459526194,-15.511581947655607,-4.415087158315636,-28.234854988294856,-187.50376913657036,78.07021338077541,-387.31339870493326,-0.08583761614530815,-0.02437958648288651,0.0438449652572102,0.9950453047168296,0.04117458638721691,0.09156873219367494,-2.971375393559203,105.88810376847886,0.3641409259305164,0.07879336047215155,32.516291383618736
2026-09-17T07:24:16.482871,0.21,0.21,trip2_return,return,0.07332495884626272,-0.19279444444822727,-0.2085548112193342,0.04404120349247048,-0.11005386104502918,-1.0201365750862965,0.4031672204771944,-0.9006432772039646,-9.75687858514194,0.057719282603942795,0.016481311112476037,-0.06326187473392926,0.053138218618118196,0.01432326619585294,-0.06356755715465987,-15.438491871693909,-4.4664533341903425,-28.284459206483593,-187.41675596566765,78.04918717606586,-387.4064464311771,-0.08548631618686355,-0.024441916743840206,0.04404795506753361,0.995065053202581,0.041297839888625315,0.09196965706907025,-2.972093646222668,106.13546121660231,0.2933280700557634,0.08720787805669507,32.53162875206363
2026-09-17T07:24:16.492871,0.22,0.22,trip2_return,return,0.1466187209719268,-0.23238987028173982,-0.002348274400555164,0.05407584408954687,-0.11424850381683405,-1.0031418524239322,0.40601331332216034,-0.9068099651052383,-9.756189233117617,0.06827895060261871,0.029752846273528366,-0.0483157928009756,0.06369788661679411,0.027594800504790566,-0.0486214752217062,-15.442195044471289,-4.5176057469695,-28.27586688550199,-187.45731743882038,77.98092474086943,-387.39733640288637,-0.08520245492620054,-0.024601475655252898,0.04435694313416024,0.9950717414668782,0.04159197414548359,0.09260117101995449,-2.972687853296528,106.30667722438791,0.27478649082818446,0.08877872938242506,32.5329801525033
2026-09-17T07:24:16.502871,0.23,0.23,trip2_return,return,0.11936717167235848,-0.30589887929433934,0.24994920717140523,0.0552050657356347,-0.12173839731263913,-0.9789401156287776,0.40915604710558395,-0.9123720449516078,-9.755539814354563,0.04373921399190346,0.023318612721064717,-0.03986475326856547,0.03915814991940074,0.021160567060674686,-0.04017043568929607,-15.380199874247854,-4.428463049294491,-28.138844081803327,-187.3740143047131,78.12894662113334,-387.19714806327846,-0.08498085506842952,-0.02477609268498346,0.044632389189793856,0.9950740421387319,0.041916327009865986,0.09317079948368588,-2.9731574225450723,106.06285428232003,0.41267087635572874,0.06360876585053452,32.37215438321674
2026-09-17T07:24:16.512871,0.24,0.24,trip2_return,return,0.04263802821017661,-0.41207159849907293,0.3597215880215808,0.0491093691289589,-0.13168097554913902,-0.9620936132710802,0.4107708644889658,-0.914048667878058,-9.755314890941452,-0.006260456499591112,0.0031497455051433397,-0.038900519896165976,-0.010841521326306086,0.0009917007875185541,-0.039206202316896574,-15.366286130077162,-4.46202804040499,-28.181871628841773,-187.35509077794572,78.0593144608055,-387.29772321019334,-0.08478438070092494,-0.024856861686777473,0.04471581412791037,0.9950850421864069,0.042082533610516754,0.09334250932623984,-2.9735626842237193,106.19224172546731,0.5486534649740225,0.03952675879100699,32.40756597107038
2026-09-17T07:24:16.522871,0.25,0.25,trip2_return,return,0.02585721439969863,-0.5005602022837288,0.2879465390206362,0.044448744786991325,-0.14098000289579127,-0.9623471692106383,0.41009198578765704,-0.9109406242323075,-9.75563386854253,-0.05020408298640477,-0.023692986590852644,-0.03457401239939889,-0.054785146972229366,-0.025851032359590444,-0.03487969482012949,-15.461315809561803,-4.420813823832903,-28.131620657667717,-187.48629051116322,78.10753950856464,-387.21055478987336,-0.0845997701271387,-0.024800358164889014,0.04456491191499079,0.9951089336124652,0.04201169333640624,0.0930242015237784,-2.9739251082248224,105.95667105351296,0.5780504484738355,0.06540007565357954,32.40345602331509
2026-09-17T07:24:16.532871,0.26,0.26,trip2_return,return,0.060530950688812146,-0.4748591310619065,0.0420033169320391,0.04628651991638147,-0.14131588619102053,-0.9811269219316887,0.4063377282835792,-0.9058434389301862,-9.756265502205405,-0.04380742270512839,-0.059821540967994274,-0.016761680860306424,-0.04838848678893414,-0.061979586736732074,-0.01706736337901818,-15.462373431495106,-4.372887397368892,-28.262775041727448,-187.47863237316753,78.1647817761558,-387.3935601118448,-0.0844594204155818,-0.02458062721648128,0.044324640399583656,0.9951370384636259,0.04162484606999835,0.0925021851913492,-2.974181040754921,105.79134196315506,0.48054080885753464,0.07601750451780155,32.511407065588
2026-09-17T07:24:16.542871,0.27,0.27,trip2_return,return,0.07057159395450474,-0.41155985785130395,-0.19394014468974213,0.04752119625563059,-0.1361669704012325,-1.0057667344134351,0.3986269152782267,-0.9031145549984365,-9.756836585924415,-0.01051309476898511,-0.09725799134548675,-0.012067730927722122,-0.015094159787868464,-0.09941603711422456,-0.012373414178039067,-15.47416002336984,-4.361467044784021,-28.190541054632792,-187.47066678219747,78.1736479832481,-387.27960702590633,-0.08438682185473548,-0.024172974756528513,0.04422026638196461,0.9951578264927556,0.04083345451890616,0.0922227284437667,-2.974287033468343,105.74080823549163,0.46040704402750304,0.09856608023008898,32.45271372573534
2026-09-17T07:24:16.552871,0.28,0.28,trip2_return,return,0.011620967166005343,-0.4099958733267601,-0.3029178162000056,0.04281752157923546,-0.13465475223384932,-1.0222160926681512,0.3892387265324857,-0.9039056832514565,-9.757142257965134,0.02787305436123274,-0.0936197882057805,-0.03274645720062883,0.023291988723885125,-0.0957778339745183,-0.03305213962135943,-15.570159912109377,-4.363533020019531,-28.35369873046875,-187.5832801579537,78.16681293778845,-387.45620271192223,-0.0842557570153541,-0.023692776561612946,0.04430379681327418,0.9951767648696884,0.03987155441578971,0.09230374596010223,-2.9745089459881955,105.65551352947512,0.5098929950432997,0.10302379512671841,32.64050446613293
2026-09-17T07:24:16.562871,0.29,0.29,trip2_return,return,-0.016884689859272852,-0.29062708303948054,-0.3127289473330062,0.0379016358006293,-0.12672725109052402,-1.026926314823646,0.381855082324587,-0.907851265506692,-9.757068011456008,0.05278376716828352,-0.06564620664631936,-0.05446501440769314,0.048202703182459006,-0.06780425241505716,-0.05477069682842375,-15.562181559756159,-4.367329677031612,-28.343809513477847,-187.52233717630966,78.13292483674968,-387.39430233185794,-0.08401759984249665,-0.023323560954513153,0.044541959505688,0.9951949900720466,0.03911629035222334,0.09270781041140666,-2.974960292018821,105.67616834994564,0.42725705219187565,0.10030946275380528,32.628616292190706
2026-09-17T07:24:16.572871,0.3,0.3,trip2_return,return,-0.019589981643130038,-0.14886333393017634,-0.19993134008143174,0.0365010966604017,-0.11274739145019823,-1.0196220057343095,0.37728316861498323,-0.9129104928769783,-9.756773642658711,0.053753083622089984,-0.04197175562721345,-0.07351380817622105,0.049172019636265385,-0.04412980139595125,-0.07381949059695166,-15.495067042659711,-4.399705876612771,-28.265709018314592,-187.44567116085426,78.09901755972196,-387.33389373945676,-0.08368170217954145,-0.02309779165984168,0.04482707874228069,0.9952157543729935,0.038649588419723165,0.09322594164751968,-2.9756224275157637,105.85154242780261,0.25003319842841365,0.100276130070342,32.53313419831005
2026-09-17T07:24:16.582871,0.31,0.31,trip2_return,return,0.04037332542483452,-0.055411124788050235,-0.09006390407994469,0.03956638926226386,-0.10170523694703619,-1.008421761883829,0.3746008026036289,-0.9174692601936858,-9.756449300289825,0.04423766062778315,-0.028149545297142496,-0.08177972124498235,0.03965664198518439,-0.03030757680847422,-0.08208538216273989,-15.438185033609882,-4.443180651205304,-28.239141218184283,-187.40440424166405,77.9821934037919,-387.34208428205164,-0.08328070984340362,-0.02296289656017505,0.045080078244084255,0.9952410840068112,0.038376345612799304,0.09369284834098887,-2.9764231064278395,106.05608135937011,0.11318968581217081,0.0971457169676657,32.48889822957645
2026-09-17T07:24:16.592871,0.32,0.32,trip2_return,return,0.13845816536930336,-0.03605311536770912,-0.06716686360078926,0.04801142858645646,-0.09800104493940755,-1.0028056480640568,0.37304348832081324,-0.9209847069818345,-9.756178143852367,0.03447659403923948,-0.01986994345559286,-0.08370948363516868,0.02989589116535519,-0.022027875723585815,-0.08401499469254559,-15.40509276467123,-4.556468392445755,-28.24159182828747,-187.43239535192353,77.93552661876632,-387.3432981145552,-0.08285273108968191,-0.022879352992407637,0.045275687068461926,0.9952698489947882,0.03821802416559258,0.09405290529093133,-2.977281482004139,106.47697869433937,0.15805656661815012,0.09268617933619636,32.49101100758603
2026-09-17T07:24:16.602871,0.33,0.33,trip2_return,return,0.21502896375768957,-0.005634795247453698,-0.09876675032571658,0.057047531642205225,-0.09622348710888877,-1.0038239271966765,0.372353232965234,-0.9238024919807407,-9.75593787153669,0.030296150329653687,-0.007894864674146978,-0.07519470863557015,0.02571544608305228,-0.01005279762849858,-0.07550021919552827,-15.41624906493118,-4.571997722303846,-28.25651285076769,-187.33214138438257,77.98399811841304,-387.45763711986154,-0.08244574950998046,-0.022837761207185194,0.045431588551985126,0.9952974961349116,0.038148313543460016,0.09434152222930517,-2.9781004999436136,106.51876965728697,0.23669405810473768,0.08145200930491744,32.51145055038828
2026-09-17T07:24:16.612871,0.34,0.34,trip2_return,return,0.2817008464271007,0.05914278783797102,-0.14176541578631707,0.06471742267128734,-0.091006207370806,-1.0087728488265773,0.3737537025553255,-0.9270222801243327,-9.755578687247334,0.04193414273391741,0.026212832918476862,-0.05312516092622667,0.03735344010125181,0.024054900514868537,-0.05343066851453781,-15.30577379091388,-4.534172148150991,-28.368524267967384,-187.34386066455005,77.99967208142242,-387.4529007716136,-0.08211833672764898,-0.022907831638544707,0.04559744285210096,0.9953153687289542,0.03829306703787646,0.09467132172636011,-2.9787700773859713,106.50140306286393,0.320859267193671,0.07258007756869665,32.55147611937051
2026-09-17T07:24:16.622871,0.35,0.35,trip2_return,return,0.2854026646162872,0.12155763348222959,-0.07755946696912791,0.06807796128990407,-0.08491982369277379,-1.005917856980055,0.37817533936424313,-0.9317169844699937,-9.754960817023667,0.05800107516129347,0.05231315251571781,-0.024615036918015594,0.053420372000902175,0.050155218505689,-0.02492054601379873,-15.366092600798707,-4.53047418612623,-28.303838843086677,-187.3379375026586,78.03063481967109,-387.3728363489608,-0.08192874467597488,-0.023144206903046662,0.04582284057647055,0.9953151730804424,0.03874808733200379,0.09515221048420089,-2.979179366074523,106.42732854218974,0.31975992579498175,0.08189438740520645,32.523057842443095
2026-09-17T07:24:16.632871,0.36,0.36,trip2_return,return,0.264859497908178,0.15054100861927497,0.06996531374370131,0.06708687965488948,-0.08088574722810536,-0.9934872014646685,0.38338354975778627,-0.9376320177111447,-9.754191090197374,0.06313211050381708,0.048858817000407985,0.0009463520818137031,0.05855140468849164,0.046700883261694366,0.0006408434838306783,-15.29988316388133,-4.488721000812926,-28.25597437020193,-187.3224658607451,78.03131261763795,-387.2940423112271,-0.0818782705157788,-0.023432181542110943,0.04610404344682748,0.995299602563658,0.039284277340222,0.09575813461356203,-2.979315018016781,106.3507416530154,0.3125832593654614,0.07983572482046042,32.444338930868454
2026-09-17T07:24:16.642871,0.37,0.37,trip2_return,return,0.25731196396122624,0.1032640213190836,0.212594702974219,0.06640926260274291,-0.08323804284822252,-0.9779744113555406,0.386851043162294,-0.9436115216348387,-9.753477375595176,0.05685522422846941,0.022873102359482395,0.02164884078855746,0.05227452159580381,0.020715170212098694,0.02134333187265844,-15.342763987651676,-4.521047277049421,-28.18032600275161,-187.34203605025368,77.99606861545112,-387.31434409971325,-0.08193711694991633,-0.023636893937015485,0.04639320042581682,0.9952764827248738,0.03964210452818055,0.09637070002758236,-2.9792230526061854,106.41866824683795,0.34938433369180705,0.06499513551878482,32.40325676353313
2026-09-17T07:24:16.652871,0.38,0.38,trip2_return,return,0.23892264302337687,0.04939350434653251,0.29383298785866224,0.06557417039178083,-0.08940774138992252,-0.9673703113392624,0.3869667876413102,-0.9487024680835957,-9.752979295879207,0.04358632936592154,-0.014102138293308381,0.04227193192583867,0.039005626446736295,-0.01626007072721171,0.04196642459375207,-15.314152815594493,-4.521994111148416,-28.28201332736058,-187.33365333858498,78.02410186182465,-387.4501276451105,-0.08209351285106811,-0.02367178781011816,0.04664860532224268,0.9952508272948754,0.03965597466454,0.09689226449200235,-2.978917724536226,106.45097234637792,0.3819182797076564,0.062334217254898835,32.478361797505165
2026-09-17T07:24:16.662871,0.39,0.39,trip2_return,return,0.16534350921386712,-0.018529042802793334,0.3315773870377504,0.05957865689344423,-0.09629722061020253,-0.9617650633012371,0.38357462934166064,-0.9523783016778286,-9.752754651421338,0.027603444156434172,-0.04581670712145295,0.062190888203610586,0.023022739808125015,-0.04797464113148177,0.06188538028351738,-15.355181159666332,-4.500339247266345,-28.34651617709817,-187.38093374595653,78.00400882396954,-387.4446237788908,-0.0823470730976465,-0.023526708909330174,0.046844159360181235,0.9952241346822255,0.03930961459091139,0.0972688704503408,-2.9783978312389587,106.33486177078531,0.37097892805538973,0.08202942981823272,32.550877425426584
2026-09-17T07:24:16.672871,0.4,0.4,trip2_return,return,0.01165038215818354,-0.10428662023264353,0.357347498162852,0.04614847344170781,-0.1038846016957473,-0.9586552530559218,0.3770103136578287,-0.9545569368586719,-9.752797585131518,0.011042666436071116,-0.07548043095459207,0.06585044758259019,0.006461962721340161,-0.07763836496462095,0.06554493712818404,-15.372468894163429,-4.556685484656284,-28.275405321598157,-187.39193119661093,77.9846586272442,-387.3300070416136,-0.08265434034527067,-0.023216346935760544,0.04697543949481517,0.9951997635356007,0.038637394144035137,0.09749208300650626,-2.977752114567887,106.5107822027152,0.37243612204944465,0.1007745870045456,32.50499544083587
2026-09-17T07:24:16.682871,0.41,0.41,trip2_return,return,-0.16474098145232569,-0.21057101474384882,0.3446744604171103,0.0273534400799299,-0.11461511730205964,-0.958571581101914,0.36818211968395187,-0.9548603767134907,-9.753104814115918,-0.011927353584707475,-0.08998380701621086,0.04393701186366845,-0.016508058080018276,-0.09214174102623966,0.0436315043770191,-15.371954616361718,-4.475829101781657,-28.19927084136908,-187.35327542075134,78.08466578363642,-387.28164128758283,-0.08291608549436677,-0.022780595958916756,0.04702182582528036,0.9951858696294399,0.03773233270726342,0.09752317365815433,-2.9771838607682244,106.23392113666539,0.4362112182004904,0.10084546742503331,32.427286517078926
2026-09-17T07:24:16.692871,0.42,0.42,trip2_return,return,-0.2592450455310135,-0.2959497109541655,0.2552157527555963,0.013770214491354375,-0.12479121107015971,-0.9644181548476173,0.35982291310067627,-0.9527671501019304,-9.753621946991153,-0.03273047057446922,-0.07367117542793548,0.009831970649064048,-0.03731117475316378,-0.0758291094379643,0.009526462227346825,-15.283047526991346,-4.46486616096976,-28.200558816851576,-187.25842202257164,78.0597081378682,-387.3020431432554,-0.08303383972572273,-0.022351623064932744,0.04694751516117239,0.9951892871343408,0.0368744902850564,0.09730870989285598,-2.9769035659047387,106.28546956325802,0.46896620933798316,0.08121202767942626,32.3848435094313
2026-09-17T07:24:16.702871,0.43,0.43,trip2_return,return,-0.2683059135785149,-0.2835842474273689,0.13825689603491462,0.009043992577306814,-0.12709800076441877,-0.975673843831234,0.35389449853949895,-0.948680467267338,-9.754236996454763,-0.048647900801854195,-0.04937663203135419,-0.02510880173483269,-0.053228603434519794,-0.05153456571727614,-0.025414310605457454,-15.281454552148787,-4.50256559854778,-28.18815864275345,-187.30256334861284,78.01295712075131,-387.2920772348934,-0.08298542017620786,-0.022029973962633807,0.04676512038723649,0.9952090854692551,0.036265201750415706,0.09689000850800548,-2.9769661916417234,106.4172526203144,0.4141534232037179,0.0737232796865816,32.37851506582182
2026-09-17T07:24:16.712871,0.44,0.44,trip2_return,return,-0.22834390171766084,-0.2037840683653721,0.054115171888937205,0.010409930847610707,-0.12082612995944873,-0.9862999719844088,0.35109216326943427,-0.9431987392451087,-9.754869893820935,-0.05886780282311808,-0.01633241144080001,-0.05495069363320073,-0.06344850545578369,-0.01849034367108906,-0.05525620162853026,-15.357009609346242,-4.532143045177202,-28.20664499354616,-187.3970333435342,77.97374795497757,-387.3192191201612,-0.08277800569845192,-0.02185404090831602,0.04650194912639337,0.9952425691237343,0.03597594730441036,0.09632841210420645,-2.977361540363725,106.44206216991208,0.3108011193669621,0.08216900025838803,32.434439821206155
2026-09-17T07:24:16.722871,0.45,0.45,trip2_return,return,-0.13935801729768355,-0.10868377962003627,-0.01014379375512614,0.01807086207208913,-0.11025715342258566,-0.9938555312827274,0.3511402414775113,-0.9371701735214004,-9.755449484083753,-0.057994364219946686,0.002390328012682657,-0.07016466759640175,-0.06257506685261237,0.00023239544204051477,-0.07047017865377865,-15.383754878429365,-4.649979413510225,-28.17497612287155,-187.40073695235446,77.83095943478948,-387.2563476816261,-0.0824669742899634,-0.021816155724655638,0.04620118618850193,0.9952832279786651,0.03597873306709112,0.09571082767070128,-2.977978043056815,106.81827577306177,0.1770189749416277,0.09106119112002432,32.43626831542201
2026-09-17T07:24:16.732871,0.46,0.46,trip2_return,return,-0.03138693444029179,-0.013633924846013102,-0.04492024159551863,0.029025904839799332,-0.10010002131664703,-0.9984748654961942,0.35211382061751484,-0.9319707077164932,-9.755912470293197,-0.042264538247880595,0.002694642519247219,-0.07342524984741121,-0.04684524122725904,0.0005367100090156119,-0.07373076090478811,-15.351923553083273,-4.6916129613907165,-28.00635387153557,-187.34780353085355,77.82207268797717,-387.04468330648194,-0.08211522436444794,-0.02182723015164688,0.045939739536140015,0.9953241694457314,0.036076691580188676,0.09517820137103326,-2.9786818680728198,106.99308721651396,0.05646991823321218,0.08476331521812874,32.28077827650501
2026-09-17T07:24:16.742871,0.47,0.47,trip2_return,return,0.08237367728505257,0.05933262504575773,-0.05656427860258861,0.04072740277948164,-0.09143074587906334,-1.000055027482885,0.35231955517093183,-0.9287502110972676,-9.756211999859657,-0.017952440246122355,-0.014554812760026044,-0.06215707052494858,-0.022533144680548577,-0.016712746015851,-0.06246258087385053,-15.322162939497547,-4.57869431893223,-28.00888177833759,-187.31850012564553,77.99650643726207,-387.12200349300304,-0.08177630674960465,-0.021808386939784992,0.0457821036960101,0.9953597484802402,0.03609664483268088,0.09484831127884985,-2.979359128267973,106.63762110368188,0.1162123088063985,0.06631465977831329,32.25260574408873
2026-09-17T07:24:16.752871,0.48,0.48,trip2_return,return,0.13779580827019033,0.09535830007533388,-0.05848722839393941,0.04827086559240038,-0.08534430895876569,-1.000752615450911,0.3498370416690891,-0.9280895290030471,-9.756364075780994,0.008626944608417805,-0.04677279224578018,-0.046477421849323956,0.00404624037105234,-0.04893072625580906,-0.04678292918141048,-15.312245785104237,-4.554817827591134,-27.913972181118154,-187.32106350002965,77.98378137392298,-386.9677626302632,-0.08150002258862096,-0.021666509222060044,0.045764706971684055,0.9953863070647399,0.035841959862290614,0.09478063643956948,-2.979901585020445,106.56576055775993,0.17748703066786967,0.0665001429284452,32.16210626427042
2026-09-17T07:24:16.762871,0.49,0.49,trip2_return,return,0.1569777188643473,0.05884362807328068,-0.054056284541692576,0.05085085089801672,-0.0870677618806338,-1.0005077409087935,0.3447223348455221,-0.9296926870379417,-9.756393531917007,0.026730728036057316,-0.06295646405170661,-0.03620904970115845,0.022150023910101,-0.06511439806173544,-0.03651455740259951,-15.282488118364912,-4.535286743765998,-27.96996876874768,-187.27314856280717,77.997710190563,-387.1193499919112,-0.08127418726557845,-0.02140251809604684,0.045872409789115824,0.995405525765056,0.035318272814600024,0.09494485378398708,-2.980333530188705,106.52900109847721,0.17614385792054482,0.07738955657898842,32.19382583448051
2026-09-17T07:24:16.772871,0.5,0.5,trip2_return,return,0.1566476226260621,0.021230130505559008,-0.046601224757396746,0.051373784483584865,-0.0911862505873401,-1.0006373841829603,0.33967315733955206,-0.932751865330433,-9.756278971478684,0.03696977266155622,-0.04433043055758008,-0.024418994612470123,0.0323890700288906,-0.04648836419079954,-0.024724503618797102,-15.308118718967405,-4.491358166460075,-27.843079636743294,-187.32624714224696,78.0436537414414,-386.91722940592933,-0.08110968172117149,-0.02115077960246473,0.046052675025790274,0.9954160010650157,0.03480179338302733,0.09525821842721065,-2.9806445001216955,106.35151087799386,0.1648055528936135,0.06267566084176077,32.08968495562799
2026-09-17T07:24:16.782871,0.51,0.51,trip2_return,return,0.11362891515813991,-0.007394390879562382,0.004809711620738229,0.048182103597920904,-0.09533828870514406,-0.997091761747273,0.33720851853242906,-0.9363364955553223,-9.756021166441633,0.0359648999772267,-0.009294402572918532,-0.012514166321862648,0.03138419696022406,-0.01145233472030221,-0.012819674633313877,-15.295526955337818,-4.4751766451682915,-27.771451161535655,-187.32521335074094,78.11638781475492,-386.7959500459228,-0.08101332007153479,-0.02103592175017208,0.04624762120593013,0.9954172439233211,0.03455038961279735,0.09562542341426043,-2.9808314284845525,106.308803377324,0.11397078881173973,0.03919775897026049,32.019273109558334
2026-09-17T07:24:16.792871,0.52,0.52,trip2_return,return,0.041568410723917905,-0.04005903214555072,0.10773223703922677,0.04156077214859271,-0.09782394437303459,-0.9878738238595371,0.3376030293207832,-0.9391542628056364,-9.755736743256247,0.019976609531067682,0.012426266370977594,-0.003428608480398338,0.015395905133749187,0.010268334125601668,-0.003734116976638138,-15.195414784475405,-4.641402992234838,-27.922883107923305,-187.18030431228797,77.81017229109764,-387.08468798533164,-0.08097690692502335,-0.021066152480080536,0.04639046681516502,0.9954129205275634,0.03459178567311364,0.0959140741870516,-2.9809103657227634,106.98527951519488,0.12222476722835983,0.023774616303761712,32.126790273342415
2026-09-17T07:24:16.802871,0.53,0.53,trip2_return,return,-0.001506593452525545,-0.12958050295426782,0.20663641005557115,0.03535806159356766,-0.10529375113961513,-0.9769356742781269,0.3384203893415283,-0.9399423636711727,-9.755632366885424,-0.005734176858233594,0.0018764530329812353,-0.0027546987490963096,-0.010314880987745684,-0.00028147948020115256,-0.0030602071954048253,-15.134812639207961,-4.653116467080323,-27.952614008809633,-187.10650087600797,77.86793471608682,-387.09899922858466,-0.08096832697325344,-0.02111066976333427,0.046427483316214026,0.9954109495289966,0.03467583760416471,0.09599481252581499,-2.9809326232512223,107.08977373720678,0.24390978358886375,0.006632512753456185,32.12573230925085
2026-09-17T07:24:16.812871,0.54,0.54,trip2_return,return,0.022172681171491234,-0.25455465314730635,0.24472058511312644,0.036379253905665584,-0.1168045122476483,-0.9706805138670707,0.33764406299952415,-0.9382782239646775,-9.755819378097412,-0.02798328756543526,-0.017208691888972474,-0.007123185823279727,-0.03256399165380105,-0.019366624036356094,-0.007428694290161433,-15.159278517665983,-4.633273328324645,-27.90243225689436,-187.1707670793975,77.8801846274356,-386.9675215890631,-0.08094897750440533,-0.021063259513085388,0.046346207789522954,0.9954173150810699,0.0345956954197058,0.09582433138211473,-2.980965491165163,106.99519329854367,0.3538048388693815,0.033614628300375475,32.0907568119188
2026-09-17T07:24:16.822871,0.55,0.55,trip2_return,return,0.00031098275683298545,-0.379512499035184,0.20254507722765724,0.03656559721527607,-0.1296396658460574,-0.972527982802157,0.33578360451313094,-0.9346004172215227,-9.756236338907671,-0.04632454540444517,-0.019849735417278927,-0.020374572332045465,-0.05090524803711079,-0.022007667564662627,-0.020680081112202157,-15.206381444377431,-4.602592467713827,-27.98904640001426,-187.18481427196787,77.9790509704542,-387.078236842335,-0.08088640585463114,-0.020950211581064783,0.046167608611708974,0.9954330865998501,0.03440375001219272,0.09544758196182909,-2.9810772410349,106.83911369344243,0.4301794299398371,0.054360819537404244,32.18391853764724
2026-09-17T07:24:16.832871,0.56,0.56,trip2_return,return,-0.10588668137463707,-0.446318956563859,0.17402305316270733,0.02711512603233802,-0.13896474542402298,-0.9758156126643999,0.3348112557934542,-0.9294418414250321,-9.756762686058648,-0.05784361605432696,-0.0035998603226287907,-0.037445213640435245,-0.06242431953112427,-0.005757792681045376,-0.03775072097252182,-15.292904789831592,-4.671706036168755,-28.096736576210446,-187.37389537828992,77.79343657869946,-387.23916289524016,-0.08074969491314342,-0.02087277819439422,0.04591142237883631,0.9954576611775279,0.03430235306453212,0.09491916398647846,-2.9813401400661,106.98606197300012,0.4906084215674006,0.06899990534167903,32.32838351096744
2026-09-17T07:24:16.842871,0.57,0.57,trip2_return,return,-0.15352185957781211,-0.4439853896155535,0.17344915528543223,0.018943681608482008,-0.13960828250357663,-0.9775224237539039,0.3357527691461064,-0.9232887405226601,-9.757314193438406,-0.06478942391081952,0.009435486398795514,-0.05985171587505714,-0.06937013026877549,0.007277553414054795,-0.06015722406625669,-15.168838500976562,-4.542411804199219,-28.08880615234375,-187.15825090943653,78.00910151237757,-387.2006936563028,-0.08051689840762097,-0.02088428629125691,0.04559870769282151,0.9954906496364828,0.03439679296456363,0.09428890025990391,-2.9818037593398685,106.67068657954266,0.5007759948615091,0.08870696560849262,32.244506470584746
2026-09-17T07:24:16.852871,0.58,0.58,trip2_return,return,-0.1016997093723135,-0.45341674063072385,0.18583063831025345,0.021355779035544996,-0.13873944859357326,-0.9756285924108532,0.33686778304076226,-0.9162595605626137,-9.757938587963482,-0.07337747592961383,-0.0027932162341015284,-0.08269902914837406,-0.07795818228756972,-0.004951148782422838,-0.08300454020575096,-15.148031438530849,-4.533157656394891,-28.099777214008466,-187.0646567380021,78.04476042853167,-387.24612468417877,-0.080169630779278,-0.02089593415447742,0.04524304474125926,0.9955346589341159,0.03450872976053965,0.09356895166034072,-2.9824968231172533,106.66014253310995,0.5004623839065213,0.11059468998471458,32.24298147314172
2026-09-17T07:24:16.862871,0.59,0.59,trip2_return,return,0.023621453471237303,-0.47258563605307025,0.15436647080560548,0.03258568481226156,-0.14065511761704724,-0.9775170843648311,0.3364132891208779,-0.9085116531006074,-9.758678373611616,-0.07781199071048397,-0.0237299157358272,-0.09754373776440711,-0.08239269706843988,-0.025887848327916522,-0.09784924882178399,-15.05934976937898,-4.504163091185448,-28.0831213285986,-186.9857006889791,78.0249274590387,-387.0045106522772,-0.07972089328380993,-0.020820386593235825,0.04485922622061823,0.9955896446322787,0.03445960016763292,0.09277544793402624,-2.983385339211732,106.6517185289207,0.4977189606361773,0.12701415502301044,32.1828091406776
2026-09-17T07:24:16.872871,0.6,0.6,trip2_return,return,0.12887149613648313,-0.42163061007771924,0.05042657514326917,0.04374424494361535,-0.13766656351688733,-0.985848081852418,0.3343327139191394,-0.900488125418943,-9.759493344353233,-0.07837614361912386,-0.03418824123701311,-0.1029547149488699,-0.08295684997707975,-0.03634617524704191,-0.10326022600624671,-15.008756338013352,-4.521386504159011,-27.962988550082287,-187.06110838814607,77.96339064234316,-387.2025535119325,-0.07922095890920729,-0.02065899219836169,0.044468905068209955,0.9956504216806661,0.03424379153840783,0.09195377004908609,-2.984368818004862,106.76480850969793,0.4437601529561268,0.1338332135820133,32.05673769094229
2026-09-17T07:24:16.882871,0.61,0.61,trip2_return,return,0.1746294900438778,-0.3240066813062602,-0.05707704199574263,0.05054264142119383,-0.12794990810783236,-0.997121372511941,0.3320967031283228,-0.8927188638308466,-9.760283766273298,-0.07280952821921068,-0.027725841782262745,-0.10376331422482685,-0.07739023457716658,-0.029883775332594426,-0.10406882528220368,-15.056997139514218,-4.575828149506994,-28.079999397085867,-187.06965216236026,77.90938587412089,-387.1149420687224,-0.07870702525624908,-0.020490508024151123,0.04409233654886719,0.9957114085486245,0.03401219377009174,0.09115819128914893,-2.9853801247406175,106.90402697427773,0.3724695652628078,0.1297565993734394,32.18909337420833
2026-09-17T07:24:16.892871,0.62,0.62,trip2_return,return,0.18850198840560756,-0.23409128558642076,-0.10520507285906773,0.05273149279240492,-0.11691082195046759,-1.0050030645854808,0.331111121493524,-0.8856771568296853,-9.760958880876009,-0.06548714186191412,-0.011160527608289894,-0.10321303957900475,-0.07006784821987003,-0.01331845987250414,-0.10351855063638161,-15.03945751142245,-4.611412176546545,-27.986578762161738,-187.00654936028434,77.91971200761571,-387.06956995870075,-0.07819483321667627,-0.020389114620460315,0.04374774359426245,0.9957690429982349,0.03390898405726048,0.0904371683385768,-2.986394633793473,107.04665191201511,0.3184334105832061,0.12274385795173243,32.10450116900378
2026-09-17T07:24:16.902871,0.63,0.63,trip2_return,return,0.1812485921319254,-0.20977070354808083,-0.08837228896784675,0.052774908772348146,-0.11128240853565885,-1.005957937828443,0.33159716975652537,-0.8790431208692993,-9.761541935379611,-0.06543230810154504,0.0008437695374590821,-0.10786442345451262,-0.07001301445950095,-0.0013141630162301406,-0.10816993451188942,-14.989810271538888,-4.567689434681209,-28.0282852234214,-186.9734613838308,78.05690708723886,-387.259629841409,-0.07767659007891849,-0.02036439418638348,0.0434181878986168,0.9958245326174354,0.03395669453130171,0.08975792963327801,-2.987428429610189,106.94664008246805,0.29097158224520564,0.12616193061974865,32.11141496904011
2026-09-17T07:24:16.912871,0.64,0.64,trip2_return,return,0.17421816055944633,-0.2346371652145477,-0.04392357766334435,0.05198585971396245,-0.11267558656574936,-1.0016146081710988,0.33283081323351066,-0.8718899936559922,-9.762141125949517,-0.07414051686624255,0.004170567460860853,-0.11217548119527669,-0.07872122322419849,0.002012635020352816,-0.11248099225265351,-14.970383607688534,-4.492881672254102,-28.174853022036725,-186.9743770956649,77.98687203501234,-387.31596131153503,-0.07713513409488545,-0.020375012859142307,0.04305971615479027,0.9958819662910975,0.03408083420142052,0.08902558905254089,-2.988511308021699,106.70528638413501,0.29552639043473566,0.13452712906893932,32.21988072441607
2026-09-17T07:24:16.922871,0.65,0.65,trip2_return,return,0.2023547820993554,-0.2293679042380035,-0.0359179815220389,0.05337620158205884,-0.11206798101869325,-0.9984189957000016,0.33390940633322586,-0.8638489240372887,-9.762819116591855,-0.0826255980096556,-0.00495501401026594,-0.11711094916508906,-0.08720630436761158,-0.007112946500817747,-0.11741646022246596,-14.974827284753001,-4.5765504655546945,-28.17833572141144,-186.99465488457363,77.93870889168807,-387.2732280070086,-0.07657116885847479,-0.020373652221378234,0.04265707373996167,0.9959428419617025,0.0341888230358973,0.08820240354130113,-2.9896372552813992,106.99401331548607,0.30797271750859534,0.14341030654957548,32.23676271588889
2026-09-17T07:24:16.932871,0.66,0.66,trip2_return,return,0.2574031393818374,-0.19962760780446834,-0.11112800665214562,0.05808070572524726,-0.10880436197819265,-1.0026321038575248,0.3339707474324344,-0.8554506949746693,-9.763556801182553,-0.07977954143895705,-0.014595204585330469,-0.11917434006768877,-0.08436024779691298,-0.016753136732714096,-0.11947985112506568,-14.967057353761083,-4.550644286890218,-28.198840391203575,-186.93492209608732,78.02100691831586,-387.3704818307223,-0.07599026935776812,-0.020318834267366827,0.042240516166231604,0.9960062061709051,0.034192517540417494,0.08734271209162654,-2.990792067410766,106.91134300642719,0.34417581528027147,0.14415380175238893,32.24741491445717
2026-09-17T07:24:16.942871,0.67,0.67,trip2_return,return,0.317940206215967,-0.1590346021011304,-0.2580487191294746,0.0641924314652996,-0.1048345037765092,-1.017055262275116,0.3338537935432892,-0.8480960513445944,-9.76420274026686,-0.06048074658940033,-0.0064115340201120145,-0.11252570684658128,-0.06506145193744817,-0.008569466293734236,-0.11283121790395818,-14.897137160789176,-4.473365482350868,-28.286911859974612,-186.87638029270417,78.10632309697982,-387.3978572303926,-0.07541573214358832,-0.020259767004056885,0.04187769218498513,0.9960663974271231,0.03417829190295632,0.086589895862406,-2.9919347128121285,106.71400427881422,0.43928023042071784,0.127910371658537,32.281342551077806
2026-09-17T07:24:16.952871,0.68,0.68,trip2_return,return,0.36957940745461365,-0.09223385353593115,-0.3859551360647835,0.07030022714236832,-0.09792723770654843,-1.0313370946591143,0.33485134698896457,-0.8434877500965763,-9.76456791285482,-0.024333125528863665,0.010306254492393571,-0.08947079756538757,-0.02891382854589046,0.008148322007468999,-0.08977630862276448,-14.869719470516426,-4.41698299376179,-28.27527512328716,-186.8623716107769,78.130830110251,-387.39979190659903,-0.07491143183082269,-0.020271456000405075,0.04164921045222092,0.9961137930584971,0.03427905535489581,0.08611821974386037,-2.992944937323272,106.54381404294226,0.5422705867068363,0.09329171183257376,32.25072835141275
2026-09-17T07:24:16.962871,0.69,0.69,trip2_return,return,0.41218314045570376,-0.035972164880484936,-0.41516066007934777,0.07548384843937014,-0.09101926300213195,-1.0388928770548138,0.3371232053225394,-0.8427979539928916,-9.764549350791594,0.01538541515041771,0.021554969432136663,-0.05102809544793145,0.010804711510820159,0.019397037284753036,-0.05133360598523908,-14.866471774582374,-4.406274236545529,-28.335508360391888,-186.88908956236426,78.13253034793341,-387.4719810021439,-0.07455991490203889,-0.020369761996215947,0.041612612623881426,0.9961396901823725,0.034511511590615274,0.08604761882199446,-2.9936594459527632,106.50936747612677,0.5861290912415412,0.057490818672325854,32.30059240499991
2026-09-17T07:24:16.972871,0.7,0.7,trip2_return,return,0.3965345836199,-0.06339931901397429,-0.3123369684229577,0.07655665216725575,-0.09004383829095133,-1.0328860690963262,0.33934286543554376,-0.8456694216010798,-9.764223839303314,0.043311197427862144,0.015612201801027977,-0.010120013577987303,0.038730494795196545,0.013454269521754311,-0.010425522508939043,-14.88384173134713,-4.37253400819734,-28.329820276119978,-186.88132593955538,78.18469588899593,-387.399022182084,-0.07441017097058276,-0.02048759949996654,0.04175371129679276,0.996142566260373,0.034739715128159446,0.08634151797625264,-2.99397381491961,106.37139265899131,0.5087371929608517,0.04713825773753121,32.29901724842246
2026-09-17T07:24:16.982871,0.71,0.71,trip2_return,return,0.3022861167685845,-0.17640861146481288,-0.1515080186304487,0.06961032944041522,-0.09922458265084369,-1.01752304587394,0.34021409134823244,-0.850611680761045,-9.763764122489942,0.05527454898412736,0.004061743864352846,0.020292220732115934,0.05069384635146176,0.0019038112513079459,0.01998671273625772,-14.827706589326304,-4.365480833429616,-28.239996188703643,-186.8128267997417,78.13871885884654,-387.32241570347645,-0.07444052374098373,-0.02055230125963836,0.04200180695938688,0.9961285356570445,0.03483047087260518,0.08684738669708679,-2.993923857412473,106.40502806888374,0.3813811404609541,0.05902158715977756,32.19341066653529
2026-09-17T07:24:16.992871,0.72,0.72,trip2_return,return,0.14389416540594088,-0.3451129556945753,-0.014462546490916375,0.055284655285361056,-0.11612283616708688,-1.0013823827259958,0.3400671361618626,-0.8560077117478332,-9.763297839235948,0.05226060142351577,-0.002161011943389634,0.030574231064654848,0.04767989879085014,-0.004318944556434563,0.030268723189848572,-14.808451804726657,-4.4622377309108625,-28.255261730876672,-186.81006884181693,78.03831806994368,-387.3603762048064,-0.07457090569504604,-0.02057116344391034,0.042274819988869665,0.9961068450991054,0.03481709825462911,0.08739972634395432,-2.9936693374008376,106.76913823522811,0.37418932143651573,0.06058567519605568,32.21120342210798
2026-09-17T07:24:17.002871,0.73,0.73,trip2_return,return,-0.00827247430374932,-0.4927780682380076,0.07456994000633138,0.03811775613872681,-0.13290803883048605,-0.9902250538979513,0.339297990321837,-0.8606158146673746,-9.762919665590509,0.039789428391034776,-0.009033483750620517,0.015416820216563695,0.03520872520817182,-0.011191416226116196,0.015111311296930566,-14.787058320003467,-4.418223926364485,-28.221712358606954,-186.78231662492135,78.13348079717439,-387.3126785076346,-0.07468619821567521,-0.020554715942600048,0.042510315850076294,0.9960885244268877,0.034739758857644416,0.0878714289563428,-2.9934412346312715,106.63540463264015,0.4984569533270015,0.04361743671913627,32.16586459081478
2026-09-17T07:24:17.012871,0.74,0.74,trip2_return,return,-0.08862371563400452,-0.5674847333020134,0.09652600387238078,0.027849251492019188,-0.14432073715273883,-0.9862898857988761,0.3382762030814179,-0.863975116058783,-9.76265836341761,0.02899293364258064,-0.011282186174708343,-0.017337730289629125,0.02441222914726984,-0.013440118600920302,-0.017643238274209966,-14.733048344446042,-4.370597052034826,-28.20810918784013,-186.72021344172055,78.17754695136514,-387.30787116700236,-0.07467998991320504,-0.02051541727547045,0.04268560862013769,0.9960823036161748,0.03463615245007379,0.0882153132431916,-2.9934540979476285,106.52313748234297,0.5824176808161005,0.035615654109952655,32.12261284615793
2026-09-17T07:24:17.022871,0.75,0.75,trip2_return,return,-0.1117330506936621,-0.5828431353941113,0.11554062262728237,0.022441650224049918,-0.14759761052952314,-0.9849020537924599,0.33775477793893294,-0.8662382235683677,-9.762475996834313,0.019974064670274058,-0.006359472889454924,-0.0548056247508901,0.01539336031626364,-0.008517405826860804,-0.05511113321337948,-14.71780727050676,-4.406084317883157,-28.176971917737905,-186.72033496604948,78.11241620005428,-387.27275688533183,-0.07449494623344162,-0.020489671192936192,0.042806793522429325,0.9960914891657342,0.034583452690358424,0.08844698912390715,-2.9938266256938952,106.66606953668874,0.6045990659688872,0.05867761633893609,32.093132853011845
2026-09-17T07:24:17.032871,0.76,0.76,trip2_return,return,-0.06943658490476537,-0.5609578314679783,0.15685603981313892,0.024499703622421327,-0.14651107970712196,-0.9811807864016383,0.3378038592152183,-0.8673169416471603,-9.762378539573435,0.006583669412633631,-0.007250443561518659,-0.08745118944035676,0.0020029653829841997,-0.009408376031359572,-0.08775670049773367,-14.692921821598805,-4.463949110851824,-28.087828613865668,-186.69655580829462,78.0385636485476,-387.15790767178896,-0.07413480445172421,-0.020480838637983223,0.042869020807017974,0.996115863277278,0.03458881843639454,0.08855742015420318,-2.9945515205815547,106.89959806875942,0.5865994759922263,0.0879978645724246,32.01148090235408
2026-09-17T07:24:17.042871,0.77,0.77,trip2_return,return,0.03482887413425844,-0.5123413901455562,0.19233093349616048,0.03305839680112956,-0.1428481487682806,-0.9762850270936191,0.3370660015023226,-0.8670132772661703,-9.762430943881267,-0.007662589961516785,-0.02976834968151551,-0.10920589858011735,-0.012243294136243048,-0.03192628240920624,-0.10951140963749421,-14.713765299698323,-4.481196140401168,-28.11354618494843,-186.7011416848516,78.05865873405035,-387.206481901168,-0.07363907466101496,-0.020420776159972356,0.04286645482271436,0.996153976870557,0.03451314276378398,0.08852633220345305,-2.995543135705311,106.93784080200773,0.5483593151476919,0.11344954037972212,32.04602139480939
2026-09-17T07:24:17.052871,0.78,0.78,trip2_return,return,0.18482389625289736,-0.4463628487175973,0.15529129557682766,0.04758859304582575,-0.1368225237199412,-0.9764992416508593,0.3333126203161749,-0.8652962994493546,-9.762711618373205,-0.020026937923816344,-0.06990091534611291,-0.11893113669288756,-0.024607642419127145,-0.07205884935614171,-0.11923664775026441,-14.837966627080608,-4.534759821202761,-28.223562673648907,-186.91908034175268,77.95014787979052,-387.3822308306474,-0.07305677196644596,-0.02019807404925408,0.042804668405637306,0.9962040484946982,0.03412814420654216,0.08835056184863926,-2.9966932078416417,106.99375207450643,0.5074594090400927,0.1393981043052277,32.20712328438758
2026-09-17T07:24:17.062871,0.79,0.79,trip2_return,return,0.3106584595936598,-0.37632570278052074,0.004823347431096458,0.06131713100138858,-0.12871885234620456,-0.987779774417569,0.32597663659356413,-0.8628752865290491,-9.763173119307123,-0.0207691480329941,-0.09905243029642928,-0.1114847303892166,-0.025349852528304902,-0.10121036430645812,-0.11179024144659346,-14.738938499647011,-4.484542804492012,-28.193568506063922,-186.73842098665892,78.0846120027514,-387.30178944239714,-0.07246253440565287,-0.019789834125481843,0.04272012295906821,0.9962592708061279,0.03337599440055075,0.088102725860357,-2.997850514647868,106.92385811306171,0.4880091984489631,0.1505708689209228,32.12825450235069
2026-09-17T07:24:17.072871,0.8,0.8,trip2_return,return,0.37142182874376223,-0.30776400543828536,-0.20144553622821237,0.06919780849542986,-0.12254698018103621,-1.0092071860469378,0.31707889561376695,-0.8614083691423946,-9.763595844068568,-0.0005831600685967969,-0.0991750618831473,-0.0915400514215284,-0.005163864563907593,-0.10133299589317617,-0.09184556247890525,-14.620553257575224,-4.450977974782655,-28.168025359650844,-186.5814174094958,78.02611719367218,-387.2384493818149,-0.07193673079695717,-0.0193086542452921,0.04268815399003591,0.9963081873308103,0.0324642169931053,0.08795256013375839,-2.9988649454151983,106.93083899477358,0.5227362260041384,0.13496523252100062,32.04698792634851
2026-09-17T07:24:17.082871,0.81,0.81,trip2_return,return,0.38249868197864845,-0.2397891019894756,-0.33074495785505026,0.06996938672342534,-0.11403687874904156,-1.0264478594667537,0.30916027287936476,-0.8626800527264795,-9.763737771511014,0.0343789316228472,-0.0779688064050778,-0.07418940880221636,0.029798227737998506,-0.0801267404151066,-0.07449491985959326,-14.611692887172628,-4.381060378523116,-28.23391464272485,-186.59432522794316,78.27812973587027,-387.3523264050654,-0.07150310287837379,-0.018891482674945906,0.04279009672263073,0.996343026162965,0.03165355108959731,0.08808273715337074,-2.9997022651755416,106.68890155685979,0.5596394216769056,0.11298280440041876,32.091263532649954
2026-09-17T07:24:17.092871,0.82,0.82,trip2_return,return,0.4011949029477257,-0.2167336739807619,-0.35678897673265836,0.07096411823969524,-0.11003557003825824,-1.0316904902258415,0.3032989129590998,-0.8676417205870294,-9.76348173311434,0.07283732095092661,-0.05355817282162901,-0.06424004609858142,0.0682566170821452,-0.05571610683165784,-0.06454555591984251,-14.622259803313217,-4.544482850243149,-28.248293578236645,-186.6725208439133,77.89079640039083,-387.3941614335418,-0.07113875550920666,-0.018595585758300427,0.04307120744662699,0.9963625608903601,0.031054632700964497,0.08859067370432991,-3.000414178111472,107.26488617619982,0.5789898181370479,0.11090778476756101,32.13143159297434
2026-09-17T07:24:17.102871,0.83,0.83,trip2_return,return,0.4372229505452686,-0.24550915268131177,-0.3305673084961702,0.07403919012228362,-0.11256559032940137,-1.0303977037631844,0.29987074247848955,-0.8765954166021376,-9.762787143923108,0.11410176306410073,-0.02588753139920066,-0.050349293715453707,0.10952105670614483,-0.02804546509647014,-0.05065480104754027,-14.556957706471962,-4.544103589699983,-28.137451046225127,-186.53780079766875,78.02698915383013,-387.27804977730324,-0.0708324696732095,-0.018440590922403695,0.04354596190975467,0.9963666268235707,0.030706032426733,0.08950733907100977,-3.001025117669988,107.33631921518246,0.6005942040847615,0.127375146688535,32.004219198109695
2026-09-17T07:24:17.112871,0.84,0.84,trip2_return,return,0.45898104512017757,-0.28128675814779597,-0.2700204282828455,0.077637506618534,-0.11786248892527865,-1.0262511509382246,0.29877792830500555,-0.889335820871286,-9.761667311094097,0.1487776039215278,-0.006316873644958429,-0.028947772157519494,0.1441968975635719,-0.008474806565412343,-0.02925327980611077,-14.549186367032629,-4.559478039835685,-28.065775248027006,-186.5362628579564,77.97762680247556,-387.0610916885585,-0.07061336575050908,-0.018421973251849313,0.044203872343568734,0.9963535522838901,0.030597711891332768,0.09081180706677278,-3.0014760379286454,107.4001615645009,0.602243199861118,0.15169921500838768,31.93987169997959
2026-09-17T07:24:17.122871,0.85,0.85,trip2_return,return,0.44488770809219647,-0.31829187103100104,-0.16915287799233053,0.07737951283480807,-0.12227472285161861,-1.0164621681124069,0.2985901407045268,-0.9050609624725638,-9.760226577206312,0.17325180756980388,-0.0020437678004144293,-0.005086175403031435,0.16867110121184797,-0.004201700413459395,-0.005391683666440536,-14.567459106445312,-4.5547637939453125,-28.1585693359375,-186.5837003329271,77.99762770731675,-387.3207634508943,-0.07051325616278638,-0.018465452690222678,0.04500868885308693,0.9963238056425193,0.03058300310567605,0.09242208655162627,-3.00169578672603,107.36274154228416,0.5725796749003854,0.17333849830103168,32.02907686904809
2026-09-17T07:24:17.132871,0.86,0.86,trip2_return,return,0.3824082973565363,-0.36494682538574863,-0.07784649705842756,0.07371825843139868,-0.12920022687107272,-1.006401285003717,0.298296105382695,-0.9229164448485493,-9.75856270678504,0.19119340899638393,-0.005338706600249564,0.014435344764317315,0.18661270263842802,-0.007496639375336829,0.014129836176823557,-14.539577331360338,-4.612364535922422,-28.1039527031963,-186.469564908426,77.77816975310006,-387.06990089118716,-0.07052329398938287,-0.018516232409500386,0.04592063810849791,0.9962805373678403,0.030558108914061403,0.09425080592976964,-3.0016964710261727,107.60076183956436,0.5343055009547711,0.1918118886051821,31.976637927248337
2026-09-17T07:24:17.142871,0.87,0.87,trip2_return,return,0.24957341314315099,-0.41906532015417003,0.022060077677096352,0.062390287936910906,-0.13604548401207642,-0.9971628459608534,0.29713119812283517,-0.9420642802727033,-9.756767862485955,0.19872070787305438,-0.018751518343085135,0.01840129835989991,0.19414000151509844,-0.020909451749613568,0.018095789492990375,-14.446477717250207,-4.719915165019099,-28.059656870771487,-186.34370277588573,77.82518106762728,-387.3193177046268,-0.07059196644528201,-0.018530165264176928,0.046900674671079924,0.9962297596257944,0.030444434868537755,0.09621223487768098,-3.0015766617367228,108.09333396861223,0.48825124488418714,0.20044986145934082,31.911168284871952
2026-09-17T07:24:17.152871,0.88,0.88,trip2_return,return,0.07560552032606678,-0.4792574948130031,0.16949218244718262,0.043981925558002316,-0.14389679119445692,-0.9835668346284037,0.2939052813942543,-0.9610791745732216,-9.755011255307828,0.1873267621942763,-0.04773560661613595,-0.002646111225471358,0.18274605583632028,-0.04989354062616479,-0.002951619820487579,-14.36292729657769,-4.785337819032782,-28.094972357916948,-186.34355858597362,77.60333907502338,-387.0423421295387,-0.07061170874202277,-0.018436402813608168,0.04788233621471368,0.9961834005435181,0.030119512004280136,0.09816040150375659,-3.0015443561155903,108.42628736372953,0.5139372928178301,0.19333133703002986,31.91426969807016
2026-09-17T07:24:17.162871,0.89,0.89,trip2_return,return,-0.05565744759920893,-0.5236982937324101,0.2906373621507457,0.027811507446291985,-0.15116617228740484,-0.9680535009915251,0.28772564049159555,-0.9779157117334979,-9.753523097182626,0.1566802001513099,-0.08385624664315623,-0.041609455279912236,0.15209949379335394,-0.0860141806531851,-0.04191496514546372,-14.337803608810452,-4.82859597060582,-27.909015517174875,-186.3201003014075,77.88437027653468,-386.88156522280116,-0.07046970697915064,-0.01817631659359734,0.04876642576368431,0.9961553481418433,0.02949108118206061,0.09988568668812478,-3.0018186457009635,108.61113545805621,0.6015211805160646,0.18251548424510014,31.745883174201925
2026-09-17T07:24:17.172871,0.9,0.9,trip2_return,return,-0.11937813008175,-0.5381812949546996,0.32971375416276033,0.018066012507788935,-0.1559713930519364,-0.9605653244889316,0.2786028202794582,-0.990975736979453,-9.752470700759464,0.11418304452080694,-0.1173296730383508,-0.09252948866284295,0.10960233816285103,-0.11948760433513765,-0.0928349970069779,-14.35700960827045,-4.733482862160921,-27.834488240486845,-186.44041317071185,77.74628225253154,-386.9922646178114,-0.07010120189145307,-0.017741013739128477,0.049472230115687896,0.9961543938427729,0.02855961513971608,0.10122418969619988,-3.0025273023367407,108.24674327293532,0.6423405668841364,0.18805777331324028,31.67472684188676
2026-09-17T07:24:17.182871,0.91,0.91,trip2_return,return,-0.10788661484384202,-0.5142016300894509,0.2785341732525015,0.014663922385781344,-0.15516622126708837,-0.962156310706421,0.2668617759518833,-0.9995936954914968,-9.751919721356193,0.06847314798209576,-0.14729505977487123,-0.1484475544806582,0.0638924429958736,-0.14945298633431942,-0.14875305808745445,-14.458659229204136,-4.82674470680348,-27.934380245946183,-186.54697975535456,77.66922405731233,-387.16207594621943,-0.06946009283995189,-0.017142070137143313,0.04996489389576067,0.9961852008096004,0.0273582043681745,0.1021075311652596,-3.0037637679794003,108.46041996886967,0.5946630337582508,0.2200479108284122,31.822631740571264
2026-09-17T07:24:17.192871,0.92,0.92,trip2_return,return,-0.0038906190693523443,-0.4509283361835041,0.1129173139992512,0.021142688955877918,-0.15190502812500467,-0.9743303252055292,0.25363849876600586,-1.00392804821209,-9.751827636390821,0.031216512664161613,-0.15487035773394892,-0.1920738010262419,0.026635809684769175,-0.15702828429339713,-0.1923793046330381,-14.499293559632143,-4.920499074783238,-28.056122277623984,-186.4743951746869,77.5233813631487,-387.23635815835115,-0.0685631940063455,-0.016438801156762047,0.050247519107717194,0.9962449704102382,0.02600346047696262,0.1025518315844731,-3.0055006580890806,108.74531663172748,0.46486753069102554,0.2486999063293379,31.962271854959273
2026-09-17T07:24:17.202871,0.93,0.93,trip2_return,return,0.151973393167598,-0.3219138223447923,-0.1607130422517298,0.03501724215769468,-0.14084178182623616,-1.000836320074642,0.2423064379839154,-1.0056279868454656,-9.751941789379869,0.0174610237030837,-0.11386245027906801,-0.20907122307127635,0.012880319788637302,-0.11602037964218173,-0.20937672667807258,-14.448389466318236,-5.048856174325173,-28.097745863197094,-186.42719197569528,77.42504840871449,-387.2100582407403,-0.06751446726422793,-0.01581446442547722,0.05039041430632292,0.9963194796705522,0.024841879572667386,0.10272609264114473,-3.007548907761555,109.26149678014652,0.3905804695543725,0.23870551155939462,31.995784557223264
2026-09-17T07:24:17.212871,0.94,0.94,trip2_return,return,0.2810610920581896,-0.14837251588742845,-0.3864275124026464,0.04803771205607608,-0.12505071141204743,-1.0287409809690118,0.23656724751568298,-1.0075091321930845,-9.751889162009247,0.033951469885195366,-0.045117675491359505,-0.19254357822065502,0.029370766098291638,-0.047275608970083004,-0.1928490818274513,-14.431953801098588,-5.052294285772518,-28.042945390081492,-186.44122655800604,77.57158470515031,-387.08641061902216,-0.06647921280008463,-0.015476124135319708,0.05052231393337144,0.9963877255577004,0.024253848459998468,0.10291893837364148,-3.009598933293624,109.2936670617663,0.5003358504858558,0.20065227749298647,31.940785122131647
2026-09-17T07:24:17.222871,0.95,0.95,trip2_return,return,0.3667975044729908,0.010799643533888861,-0.42263627453426234,0.05934478737117258,-0.10656242208961884,-1.039872612713118,0.23695548588024012,-1.0122906921640964,-9.75138397034638,0.0740016359753903,0.014093725697277298,-0.14995392045491626,0.0694209319107919,0.011935792547257561,-0.1502594269255779,-14.436685711950908,-4.966651740796417,-27.95125843632661,-186.44155498521644,77.59629185351238,-387.02313188012675,-0.0656067180420908,-0.015467918982017369,0.0507788502657938,0.996432642176979,0.02429490400654463,0.1034091326941698,-3.0113566172058888,108.98475099498884,0.5597128389989577,0.16781255462826264,31.848993265632796
2026-09-17T07:24:17.232871,0.96,0.96,trip2_return,return,0.3685382142949734,0.07708090841588995,-0.2662301085491786,0.06456826667169266,-0.09599527191216899,-1.0299665829780071,0.24096333738948267,-1.0215197586370266,-9.750321837047489,0.12018389809977001,0.03463726063292938,-0.0970971856047335,0.11560319174181403,0.03247932734646742,-0.09740269666211034,-14.37776723353753,-4.972526547553509,-27.904356012258752,-186.3143563917908,77.5785559992949,-386.9900702885697,-0.06498784760050198,-0.015671759610323945,0.05124670865576376,0.9964460599886585,0.02470835778460183,0.10435534887738797,-3.0126283850609554,109.07818370626035,0.46112943143552876,0.15834068535587892,31.782059331434
2026-09-17T07:24:17.242871,0.97,0.97,trip2_return,return,0.2769739322672026,0.027306939999171203,-0.0038681833384041787,0.057628007740501426,-0.09835832231303185,-1.0039326373026864,0.24366225502083863,-1.034910820778678,-9.748841663802757,0.15564993880131797,-0.002674717519639668,-0.05651415390161462,0.15106923244336207,-0.004832650398080912,-0.05681966349687638,-14.324668545132266,-4.977756776838229,-27.94513626582604,-186.34619426641385,77.56340786147024,-387.1276340935319,-0.06460272080335772,-0.015834438775912656,0.05192805243287568,0.9964332573654815,0.02498876595552552,0.10572843646746974,-3.0134282502460237,109.16214061561122,0.2783436562417308,0.16561372876026698,31.79472963201364
2026-09-17T07:24:17.252871,0.98,0.98,trip2_return,return,0.14048662112948895,-0.10435231949740784,0.21897731340719057,0.044913176668396546,-0.11186132681005947,-0.9777200041610562,0.23999932924122308,-1.0507865838890011,-9.747232688273368,0.16957166997119144,-0.08590027020779921,-0.04486749057194101,0.1649909636132355,-0.08805820126335201,-0.045172997904027574,-14.359402999956467,-5.016835283415173,-28.013718426160505,-186.36384472873638,77.50431200430047,-387.12236781060165,-0.06432976464897171,-0.015686573939466583,0.0527554900381775,0.996409790723215,0.024617290968784594,0.10735654989368573,-3.0139710676616556,109.25829308980792,0.2803158238271622,0.19531128843160808,31.876786394432592
2026-09-17T07:24:17.262871,0.99,0.99,trip2_return,return,-0.02011861763828466,-0.24163385898832018,0.30231738381960266,0.02795132421521978,-0.12895632042443847,-0.9624488766456917,0.22763966855322287,-1.0671489479420173,-9.745748893331514,0.16651461859262567,-0.17711056462995212,-0.05798920771454493,0.16193391223466974,-0.17926849118940036,-0.05829471653903042,-14.320136869058715,-5.116378962422915,-27.9478332916926,-186.30749723891128,77.36942094630245,-387.03502809506296,-0.06403128322420258,-0.015095204980367434,0.053636406046386524,0.9963911207461102,0.02335351884241449,0.10903486107891223,-3.014516889686438,109.6608886891138,0.38754029615614405,0.24991602293560267,31.817055793016735
2026-09-17T07:24:17.272871,1.0,1.0,trip2_return,return,-0.1658686068899146,-0.32486672382336673,0.22147768821836536,0.009679356134986536,-0.14189858674575012,-0.9660426656562078,0.2081344259633388,-1.0826537918458663,-9.744472887774599,0.15471184763952614,-0.23243272627527162,-0.08572979769758086,0.15013114128157024,-0.2345906528347199,-0.08603530875495777,-14.305620878757223,-5.2193387942083005,-27.95264547479288,-186.3095360409348,77.2920424929005,-387.0774785747752,-0.06361026748010704,-0.014129513687008129,0.05449807035934227,0.9963854931908565,0.021355889353002186,0.11062549246627836,-3.0152657553078344,110.04423140579088,0.4267354559652621,0.29207931501059675,31.831473029297925
2026-09-17T07:24:17.282871,1.01,1.01,trip2_return,return,-0.2626785731766745,-0.31486436678616253,0.05600119076816645,-0.003586929084605432,-0.14607642300509713,-0.9818468046389244,0.18624022139251567,-1.0969980094674567,-9.743312306864754,0.14484514701765927,-0.23233501213278904,-0.11909292604736334,0.1402644406597033,-0.23449293869223725,-0.11939843406012357,-14.349192996889727,-5.219695234407143,-28.01522944543406,-186.38057565858702,77.33469026087724,-387.15895409186885,-0.06302539131321583,-0.013028390385488413,0.0553095682257858,0.9963929509769007,0.019112260490546373,0.11209730839398829,-3.016325876500045,109.9897617316008,0.4138547277067609,0.2985679144044673,31.906075266042944
2026-09-17T07:24:17.292871,1.02,1.02,trip2_return,return,-0.309902504885844,-0.23517737221897886,-0.07628401403308824,-0.013728581761152886,-0.13977603072628794,-0.9977700633755654,0.16709356129922667,-1.1104989646419892,-9.7421327696996,0.13715340460392145,-0.18596774526283774,-0.1485080980419961,0.13257269824596546,-0.18812567182228596,-0.1488136016487924,-14.371292534713778,-5.200986648256009,-27.963173531592126,-186.38288565675265,77.35557366990307,-387.04702378773214,-0.06228630832729562,-0.012054947803579168,0.05607003185092926,0.9964091757689939,0.017149898398519582,0.1134828250262948,-3.017707490347092,109.89539135132854,0.3964431986241473,0.2746811130322611,31.86727765579595
2026-09-17T07:24:17.302871,1.03,1.03,trip2_return,return,-0.2963208549238264,-0.17598212399707727,-0.13590782948301852,-0.015314818678467235,-0.1325701728971471,-1.0067134354486929,0.15469100982604606,-1.1229723072713829,-9.740910876848098,0.12239592708633872,-0.10162014655122346,-0.16439123750410695,0.11781522072838277,-0.10377807621592745,-0.16469674111090327,-14.309167098770734,-5.241850538088276,-27.849045196113153,-186.29312637339675,77.30161859693415,-386.9320897473119,-0.061451933685209806,-0.011415489083606489,0.05675672255541765,0.9964296367030128,0.015879189803185537,0.11476307495975496,-3.0193165300031457,110.119290070164,0.37046821070652647,0.22876165788992736,31.745843483192445
2026-09-17T07:24:17.312871,1.04,1.04,trip2_return,return,-0.2616898483858054,-0.21346952144595058,-0.12718017719393893,-0.012514630904959604,-0.13408078753541572,-1.0067542062755974,0.1515832102787159,-1.133476304608947,-9.73974415477868,0.09695605945490567,0.00016439056916757702,-0.16014042424843455,0.09237535309694966,-0.001993543440861287,-0.16044592785523085,-14.248895645141602,-5.356958822289083,-27.850456328375593,-186.23920249983016,77.1751794895678,-387.0031058032043,-0.060618185364507395,-0.011242624696941378,0.05731314144639728,0.9964508230768758,0.015562117551245567,0.11584133516868836,-3.020976666329451,110.60423513292658,0.3608678578172773,0.187204326786939,31.7391863888883
2026-09-17T07:24:17.322871,1.05,1.05,trip2_return,return,-0.23948892477542633,-0.30028653003804956,-0.07500509610502114,-0.008641410019496185,-0.14402724534861702,-1.003396516591043,0.15795499760017345,-1.1413742078192268,-9.73871941084992,0.0700530567395088,0.09317293767896352,-0.1409929524691103,0.06547235196420588,0.0910150068342409,-0.14129845607590658,-14.186362134006487,-5.451727218246195,-27.845247224338927,-186.1728316284092,77.07084238879182,-386.9739648699444,-0.05987515771234509,-0.011549356354915037,0.057706196840518385,0.9964695543281352,0.016217877633531795,0.11665216517157245,-3.0225095117787792,111.02147171570276,0.39134730055809214,0.18294162927074215,31.7227362193726
2026-09-17T07:24:17.332871,1.06,1.06,trip2_return,return,-0.2833409172091247,-0.3598937592359125,0.033787420558161536,-0.008559170985266954,-0.1521208926295821,-0.9949353499744843,0.17181500176986736,-1.147040225372019,-9.737817240730253,0.05170283391099715,0.1563117321007698,-0.12207731966555722,0.047122131278331446,0.15415380554132155,-0.12238282646803274,-14.14894838946084,-5.424431548834846,-27.931701998388174,-186.14751661125055,77.1421628380976,-387.09393287144474,-0.059255433591085406,-0.012237670979061411,0.057961571790779765,0.9964835619288874,0.017642291985659243,0.11723391133586276,-3.023838932292468,110.97570274182144,0.4592898682638657,0.20496197843380032,31.777305969549765
2026-09-17T07:24:17.342871,1.07,1.07,trip2_return,return,-0.4058321957437143,-0.3974056383296794,0.17170549923179718,-0.0159208808352508,-0.1570354609231938,-0.980685240279117,0.18966434939011637,-1.1514889069644514,-9.736960439225582,0.04339370546549254,0.17704813497427477,-0.11621353038052182,0.03881300283282688,0.17489020841482647,-0.11651904143789862,-14.12160017231565,-5.414051336337534,-28.023210807174785,-186.1215490813156,77.17079395507575,-387.19030575926485,-0.058714477835647406,-0.013130024667798541,0.05814266983515052,0.9964936740838602,0.01947636506598802,0.1176906951694684,-3.025034162078255,110.9762035356231,0.5933917685179203,0.21618196135524212,31.843867341178917
2026-09-17T07:24:17.352871,1.08,1.08,trip2_return,return,-0.5700061101802305,-0.42059560690571596,0.27030004987350376,-0.03151768682675045,-0.15965040004874045,-0.9688546221474558,0.2079069610679957,-1.155484057949132,-9.736114954758733,0.042181632501470216,0.1666485972579251,-0.12848824497903327,0.037600929868804575,0.16449067069847687,-0.12879375278049335,-14.026411765695535,-5.499955812123494,-28.182668187968655,-186.0475749950538,77.05895344935068,-387.32407305681363,-0.05816093795554875,-0.014040179820584094,0.05830063411091964,0.996504498087691,0.021350977517570407,0.11810093491654795,-3.0262574172455006,111.4124523030615,0.7582016533566801,0.21461657481731294,31.957041902361574
2026-09-17T07:24:17.362871,1.09,1.09,trip2_return,return,-0.712522572017893,-0.44644596367552525,0.32478039653195667,-0.045340349600537753,-0.16270590265705143,-0.9600974684292874,0.2243106132067532,-1.159373819523468,-9.73528954138503,0.04197304653451814,0.13462597118281835,-0.15535644641305146,0.03739234390185248,0.13246804133716758,-0.15566195001984773,-13.871754087830173,-5.529732847341584,-28.269403210000398,-185.8334261044778,76.98568519635631,-387.5110860681241,-0.057500313032558925,-0.014849820374157923,0.058461244003735924,0.9965216905745446,0.023036922494831066,0.1185003743218835,-3.0276851186129248,111.73346588238685,0.9013793430563056,0.20981304581554788,31.9712787464903
2026-09-17T07:24:17.372871,1.1,1.1,trip2_return,return,-0.7925154662046594,-0.4519876119663049,0.3605928295515055,-0.056237193940286506,-0.1649064964052448,-0.95702780996947,0.23646579787770705,-1.1626931187122327,-9.734608257686224,0.031011341564192264,0.06456472493329134,-0.19697462320969816,0.02643063810251021,0.06240679154502484,-0.19728012681649446,-13.779940826945642,-5.473858628880828,-28.20368330402477,-185.77189157291852,77.11810230870674,-387.2933818249524,-0.05665319743187863,-0.015429940123888123,0.058608845034602626,0.9965527258766731,0.02428648177503019,0.11884124288808694,-3.029461482729024,111.6647426836976,0.9810202619052029,0.20959319931697482,31.86373564723418
2026-09-17T07:24:17.382871,1.11,1.11,trip2_return,return,-0.7185602386663943,-0.4525281526415148,0.3221653457011608,-0.05636030976592422,-0.16464727438989155,-0.9540112465106405,0.23930306577956637,-1.164039917462713,-9.734378774798106,0.005955485051251449,-0.06731285180341404,-0.25071418393164746,0.0013747809741942274,-0.06947078169781086,-0.2510196875384437,-13.730891841612197,-5.509247771833272,-28.205817304208278,-185.71522908544154,77.08199794662582,-387.3642772919252,-0.05553806484371577,-0.015513013898062299,0.05868685378143414,0.9966096141150006,0.024578342047734722,0.11897955347735704,-3.03171777590865,111.86198442863125,0.9082406374393276,0.2596614908772882,31.85054680183493
2026-09-17T07:24:17.392871,1.12,1.12,trip2_return,return,-0.5143166281365853,-0.4389772447013585,0.06567585616758445,-0.03590023715382308,-0.16644515456051953,-0.9709619125428677,0.2294696609570673,-1.1630010815974152,-9.734736413399993,-0.01215828249485552,-0.19467602908420084,-0.2961288976411321,-0.016738986480883067,-0.1968339556436491,-0.2964344012479283,-13.749783037414938,-5.50143941456579,-28.196871534653788,-185.74172524052932,76.99465167143,-387.3208084166361,-0.054127363396752066,-0.014925363179564265,0.058682227314486024,0.9966964724845198,0.0235678986788555,0.11887286822909306,-3.034488252241791,111.80688831535475,0.6793643598443535,0.35459681915010094,31.849425953223875
2026-09-17T07:24:17.402871,1.13,1.13,trip2_return,return,-0.36950573167013623,-0.28747122320406837,-0.33459614977736435,-0.018143272559704143,-0.1579020222470405,-1.0110638482523564,0.21152786483356492,-1.1612279513294483,-9.735352805077914,-0.00778554351772517,-0.2358977763593619,-0.3106498762748333,-0.012366247800113141,-0.23805570291881012,-0.3109553798816296,-13.854727727889284,-5.527880309596915,-28.19485260617546,-185.8293354942962,77.15484993129516,-387.3521369844383,-0.05253719714574165,-0.013911487293284805,0.05866276111651988,0.9967973685235854,0.02172439813265838,0.1186907759826375,-3.0375689512023283,111.74935706173055,0.5754378970430801,0.3901432060266168,31.897659077354444
2026-09-17T07:24:17.412871,1.14,1.14,trip2_return,return,-0.31607994283152785,-0.021529329058856968,-0.6675066105422126,-0.014050761964205566,-0.13058640539967178,-1.0524057651522059,0.19398177120393192,-1.160774485828034,-9.735774413430743,0.011736883046556902,-0.18881282890078405,-0.291824351743907,0.007156178802118046,-0.1909707554602323,-0.29212985535070324,-13.945205688476562,-5.645240783691406,-28.17938232421875,-186.01337436209562,76.84423103707874,-387.2960435408514,-0.05096131781896485,-0.012922272499885215,0.05870680045948243,0.9968898989052921,0.01992199780970558,0.11864420862343474,-3.04062418663391,112.03888435718888,0.7388742229822742,0.34777793353218495,31.94393672317587
2026-09-17T07:24:17.422871,1.15,1.15,trip2_return,return,-0.25323454331396705,0.18195366062233725,-0.8294004198881181,-0.010852350295481747,-0.1038578747989602,-1.0745185747038168,0.18337239875885739,-1.1627185482276297,-9.73575042438721,0.03797004835591873,-0.08958947785487281,-0.2445006868742146,0.03338934472733927,-0.09174740701451504,-0.24480619048101088,-13.92831416295705,-5.622285633626427,-28.110012755355513,-185.89958887216076,76.98339922549603,-387.1105871662663,-0.04957413035462735,-0.012304241391050581,0.05885104614961674,0.996959159449608,0.018832719458194237,0.11884385458790617,-3.0433442359993217,111.98179067529365,0.8860812180900173,0.2631512587779551,31.871317015058565
2026-09-17T07:24:17.432871,1.16,1.16,trip2_return,return,-0.1789014045684249,0.22215223205318482,-0.8163335002529845,-0.0012459890556828581,-0.0933804262258604,-1.0809511084055679,0.18263055275358417,-1.1672088983262094,-9.735226858622283,0.06099650929318007,0.022963499917572378,-0.1816834855785917,0.05641580491187965,0.020805566895871267,-0.181988989185388,-13.861196229524916,-5.645637717483859,-27.998245016813705,-185.77653177574288,76.82137441838894,-387.0759334638665,-0.04849769836222661,-0.012214187822301473,0.05909615084218973,0.9969987120478367,0.018757571191100633,0.11930501243443724,-3.045502241081453,112.16144078988727,0.8647298482173821,0.19302016839284875,31.747562271330466
2026-09-17T07:24:17.442871,1.17,1.17,trip2_return,return,-0.17528805765541058,0.1266502366582522,-0.6092120122849872,0.0039405867498410385,-0.10166363792031344,-1.066144320786463,0.19167851004879227,-1.173627340460297,-9.734278800608728,0.07332246841480457,0.12295385841621315,-0.12464681810297552,0.06874176205684861,0.12079592793341663,-0.12495232523700417,-13.821605422580976,-5.716898007989286,-27.98385030147203,-185.85672942175592,76.81917175493163,-387.1647495850179,-0.04775786559022926,-0.012648044138470451,0.05941203390950155,0.9970102424150282,0.019688571059013164,0.11996422657793097,-3.04704623150543,112.47093987238934,0.6464560785656835,0.18981745161357125,31.73035734098291
2026-09-17T07:24:17.452871,1.18,1.18,trip2_return,return,-0.2138442901261237,0.0016446843378599514,-0.2986625871883909,-0.00040020762910962765,-0.11618613845213382,-1.0348472492028538,0.20820403463516296,-1.1806387518115538,-9.733089119647104,0.07227057133492337,0.18611097801403145,-0.0857413377129209,0.06768986497696747,0.18395305145458316,-0.08604684877029775,-13.773413525294776,-5.744435679637752,-28.036765576835805,-185.67117815471033,76.80125761928639,-387.22885573309566,-0.047279627928344406,-0.013480206938391326,0.059737644493219104,0.9970026753395687,0.02138814249633947,0.12068439664640197,-3.0481125324132394,112.63994169465734,0.3673301327037848,0.21728301500857516,31.761071855759425
2026-09-17T07:24:17.462871,1.19,1.19,trip2_return,return,-0.21135523869455844,-0.06979204044988943,0.004512938617216364,-0.0009229001176756527,-0.12765910965582805,-1.0022924994495424,0.22855953338894874,-1.187087032642772,-9.731847164067934,0.06273108241775302,0.20969567510234172,-0.05329785257363871,0.058150377853554445,0.20753774854289347,-0.05360336183725819,-13.671498559920964,-5.684220184928853,-28.093902883752243,-185.62413140081634,76.99842918213781,-387.27922966358324,-0.046986238921758516,-0.014517341406619004,0.06002353424539599,0.996984812064438,0.0234814539912891,0.12134677888276907,-3.0488323561014843,112.57528057380772,0.22262599230268584,0.2252734470524458,31.75669395932732
2026-09-17T07:24:17.472871,1.2,1.2,trip2_return,return,-0.14447294988665102,-0.08136571454971349,0.26353450374198145,0.006107248960320355,-0.12935746745960502,-0.9735867008229775,0.249064695523736,-1.1928701699314752,-9.730637455153165,0.05765376106626893,0.19959949148407524,-0.012416636246311714,0.05307305843360328,0.19744156492462706,-0.012722144030582923,-13.6115920872577,-5.644438840362713,-28.281877906018572,-185.5785330571013,76.87050062409035,-387.6699773165239,-0.046878591254635726,-0.015571632973038829,0.06027278204215429,0.9969589327918341,0.02559037545099316,0.1219408847516802,-3.0491811278931533,112.52286584431255,0.31135710593411653,0.20812997386599816,31.890433469356182
2026-09-17T07:24:17.482871,1.21,1.21,trip2_return,return,-0.05550931926743539,-0.11418760039003711,0.475597301325233,0.01886374080194819,-0.13178009915653202,-0.9511297219377604,0.2665093813253724,-1.1988612624626838,-9.72944079801403,0.06547940563898748,0.15887319941387992,0.032522668671832636,0.06089870118260166,0.15671527285443174,0.0322171608643536,-13.55670331478975,-5.63252893691003,-28.444741699657065,-185.52382284133856,77.00172813521604,-387.5960152235872,-0.04698048392683041,-0.01648297662898112,0.060536742479503435,0.996923491759232,0.02738523873526692,0.12255640381479,-3.04909186262366,112.56140004185758,0.4922528675754092,0.1748884502543702,32.009575400972906
2026-09-17T07:24:17.492871,1.22,1.22,trip2_return,return,-0.009710040685163042,-0.18816991181963025,0.6546932730087938,0.02659353016180297,-0.13788552261523862,-0.9307009654563255,0.2782480899837396,-1.2061876998869068,-9.72820841741188,0.08301416981215246,0.09364044866699657,0.07285376747283943,0.07843346345419656,0.09148251842970492,0.07254825830183116,-13.43583462061938,-5.587795621046816,-28.370057637673803,-185.3206351845844,76.97303831958934,-387.42148978518424,-0.04728005509751823,-0.017118567433217532,0.06087913685218931,0.9968777666971725,0.028594418348169275,0.12330917791074807,-3.048572826837175,112.58281129101388,0.6812675556103357,0.1448017867677877,31.884248183392344
2026-09-17T07:24:17.502871,1.23,1.23,trip2_return,return,-0.013917450116846893,-0.2912950979203964,0.7535068919645317,0.02909286526418032,-0.14848945877924427,-0.9160490770870736,0.28271542415405376,-1.2154681448379785,-9.726924796821931,0.10316864992211892,0.02338879688875482,0.1043346209393772,0.09858794356416302,0.02123086357400769,0.1040291098820003,-13.308964621559591,-5.623104009259391,-28.31259802793096,-185.26345413752838,76.90982348237546,-387.45588083640325,-0.04773584302216421,-0.017397740542888975,0.0613359931388776,0.9968232059200033,0.029057063433658808,0.12426282258445255,-3.0476976232397623,112.90449998286977,0.8079722555436273,0.1485816922545294,31.786019648393758
2026-09-17T07:24:17.512871,1.24,1.24,trip2_return,return,-0.07910473815844589,-0.4450729934974237,0.7532177848567304,0.02584216184700097,-0.16284680813950445,-0.9129871995181518,0.2814489526201824,-1.2266343503697885,-9.725559193269477,0.11973777848721115,-0.01468745665804195,0.12071402745001476,0.11515707586729758,-0.0168453890374593,0.12040851639263786,-13.361826019195794,-5.664125641070035,-28.34609715496545,-185.45881519396048,76.87956143055534,-387.51295435030465,-0.04829295749503977,-0.017395732054123075,0.06190136439595119,0.996761455840164,0.028931015529461424,0.1254103940216887,-3.046585204333613,112.97270574948264,0.8784557817923188,0.17065970058375593,31.845281247993793
2026-09-17T07:24:17.522871,1.25,1.25,trip2_return,return,-0.2144752033737606,-0.62383858848071,0.6952083069641297,0.013297513572888487,-0.1835237731224919,-0.9177046952507094,0.2782426760996555,-1.23903901095989,-9.72407859126851,0.12694396908137223,-0.018315438032849393,0.10770399742453973,0.12236326640563093,-0.020473370180233093,0.10739848636716283,-13.402269513403086,-5.740199501081616,-28.42193236904323,-185.3863514846177,76.76116643237316,-387.6216496454088,-0.048854309323668965,-0.017298766799709007,0.06253492271364818,0.9966962388656408,0.028605964827787364,0.12668543672436722,-3.0454530241497064,113.18580578964125,0.9583782068743802,0.16748246958321578,31.943339806798203
2026-09-17T07:24:17.532871,1.26,1.26,trip2_return,return,-0.3771174445170135,-0.7284664533472928,0.6451279285803022,-0.004192554193082361,-0.20055997947816145,-0.924868028185312,0.2758403523320584,-1.2514817707505546,-9.722553745742635,0.12042253810031758,-0.007874527519968928,0.06442593158308002,0.11584183174236169,-0.010032459904770172,0.06412042242504389,-13.415953520358785,-5.830728542252546,-28.516096672820588,-185.46563637745047,76.69220621011303,-387.70678419703194,-0.04927645281289113,-0.01723480784267156,0.06317103464713279,0.9966364497540795,0.028363568377478204,0.12796459821339928,-3.0446049457296502,113.49023069379155,1.0435856384819302,0.1368002066026689,32.04922734868214
2026-09-17T07:24:17.542871,1.27,1.27,trip2_return,return,-0.5102479728551296,-0.7063668080275725,0.6360785531442432,-0.020855306354844592,-0.20337274684940249,-0.9266137476155745,0.27515162601406745,-1.2622300676819305,-9.721184638710847,0.09510506843675057,0.004367757321128322,0.014741659359550338,0.09052436207879468,0.0022098247080833697,0.014436151548894697,-13.450608033962244,-5.719958356128986,-28.60530103554172,-185.45917204122293,76.94858737773119,-387.7965184448911,-0.04946618450301099,-0.017239586156151482,0.06372021179459517,0.996592006725285,0.02829677713240763,0.1290697243664461,-3.04423216493507,113.03566993194036,1.0788433561253943,0.09633985606719732,32.12320076538301
2026-09-17T07:24:17.552871,1.28,1.28,trip2_return,return,-0.5460179828873174,-0.6207986943510353,0.6660017219070007,-0.030286652456623615,-0.19590086547796037,-0.9249666923622858,0.2757754897578133,-1.2696522299422681,-9.720201082089902,0.055772694323963166,0.005739591291318071,-0.01892449180143563,0.051191989895221585,0.0035816586707371366,-0.019230000547148383,-13.37936249637661,-5.568220505043819,-28.44265244982187,-185.3468475003449,77.05072244300618,-387.4520965574762,-0.049445731215402924,-0.01728941022927342,0.06409936490146671,0.996567843840913,0.0283637703479506,0.12983295221269198,-3.0442859170401273,112.59612865170459,1.0616425717384241,0.05917493329348342,31.921730823744465
2026-09-17T07:24:17.562871,1.29,1.29,trip2_return,return,-0.4684502417003233,-0.5971267098522723,0.6600165625387533,-0.024849419025843374,-0.18893157143740763,-0.9206345074937428,0.27544861456953557,-1.2727596928145843,-9.719804264629982,0.009180054668503825,-0.024160868370334654,-0.02842675751425945,0.004599351063647173,-0.026318801719479475,-0.028732266708991202,-13.316341554210172,-5.537951312503822,-28.364146420527064,-185.30096772978496,77.04088349094974,-387.5098196683362,-0.049315234092277845,-0.017272393849930862,0.06426168143090819,0.9965641516715265,0.028331321880807326,0.1301525137246295,-3.0445492310652886,112.58124155213879,1.005797096532677,0.03842006646141912,31.820098354548588
2026-09-17T07:24:17.572871,1.3,1.3,trip2_return,return,-0.31950272062553975,-0.6574722860710731,0.522839986756806,-0.011241022243533998,-0.19377670315480533,-0.9291515620178552,0.27120557659436895,-1.271577617814682,-9.72007763685955,-0.030308998869447722,-0.07039274938328759,-0.01843050608532926,-0.03488970238499155,-0.07255068339331638,-0.018736014790177516,-13.3009968253683,-5.4718688994064655,-28.549436062185585,-185.30463938580573,77.12509326002133,-387.76833574592297,-0.049179875263202784,-0.017044002605489435,0.06421393447292642,0.9965778506789054,0.027894355303714258,0.13003095019580474,-3.0447914175578314,112.36139332018169,0.8987287951270405,0.07882549164304577,31.967611191166164
2026-09-17T07:24:17.582871,1.31,1.31,trip2_return,return,-0.22056092122300086,-0.7163113219525298,0.2968986770439895,0.003794858100384313,-0.2020245624316231,-0.9515398983638633,0.26324875236792616,-1.2676419924455868,-9.720809812238741,-0.04780025781770439,-0.09171347710862976,-0.004239075029985618,-0.05238096045036999,-0.09387141111865856,-0.0045445833550983635,-13.338918866854382,-5.452219066425828,-28.666027987632546,-185.36394037230932,77.12031167696854,-387.8532948895966,-0.04910148452141829,-0.01662259291883223,0.06403324255386443,0.9966004603001575,0.02707434605879628,0.1296262270291699,-3.0448917175496906,112.23191087596864,0.8061624243033104,0.10350940192998902,32.084180056104806
2026-09-17T07:24:17.592871,1.32,1.32,trip2_return,return,-0.2758943357278917,-0.6980546017526045,0.09654061780678595,0.0031549302548372,-0.2031628530918346,-0.9757532676508103,0.254795388017267,-1.263076911553178,-9.721629523445658,-0.04522562985457182,-0.07730954721737679,0.0026408928644463866,-0.049806332487237474,-0.07946748122740566,0.0023353844224426826,-13.318426353668293,-5.459729818171053,-28.678325387316796,-185.32506905041777,77.10057205164594,-387.8272926044876,-0.04907633294990754,-0.01617766978380909,0.06382060212437758,0.9966226604332443,0.02620313601936863,0.1291567933993163,-3.0448815206361233,112.29064665941877,0.7567813438512063,0.08960523423227035,32.087933514739326
2026-09-17T07:24:17.602871,1.33,1.33,trip2_return,return,-0.40713709696945743,-0.6229082232074757,0.02423525339588554,-0.011291710644122157,-0.19483316217190771,-0.9895090830247606,0.2491358944767363,-1.2593380892212545,-9.722261797895255,-0.03195506585160217,-0.03719591051644171,-0.00401041546809428,-0.03653565220424051,-0.039353807437151486,-0.004315867703846702,-13.227823816406227,-5.359465632320069,-28.657841565076694,-185.20590491071718,77.23221813735331,-387.78845525278024,-0.049057235539996094,-0.015877914477492917,0.06364329828206729,0.9966397594200216,0.0256196984766098,0.12877234096854115,-3.0448787224352367,112.0550646475483,0.7445553154570684,0.049201071380144755,32.01516949745763
2026-09-17T07:24:17.612871,1.34,1.34,trip2_return,return,-0.47186087124350373,-0.5742107125579509,0.09156387892541953,-0.02354999923559954,-0.18692456657792453,-0.9868429528027829,0.24778666435031368,-1.25690470196213,-9.722611400043485,-0.01878953015011517,0.0038610586495919706,-0.01644244002656509,-0.023370016715943517,0.0017031935574336177,-0.016747844486777626,-13.24829353264033,-5.273744479989235,-28.722825858334737,-185.24812351261969,77.3282532268421,-387.8738474423894,-0.04900409118686708,-0.015799387765896015,0.06352277958962727,0.9966513105727498,0.025480091724178196,0.12852213191764944,-3.0449740318855487,111.70638286800127,0.7488354746877695,0.025264759076327362,32.067590923788444
2026-09-17T07:24:17.622871,1.35,1.35,trip2_return,return,-0.4250688496406951,-0.570583806565369,0.243065301613132,-0.021848452607483363,-0.18570607475249162,-0.9737663622467075,0.24925174601548783,-1.2552077104385226,-9.722793225674003,-0.015950513709328363,0.015838455757809487,-0.02128029056432977,-0.020531000275156662,0.013680590665651086,-0.021585695450933126,-13.232314965211875,-5.203321082800172,-28.651395371565773,-185.2631885566456,77.37080145589361,-387.8127862815302,-0.04891293366402265,-0.015864009134233064,0.06343366390095612,0.99666043787173,0.02563020239022629,0.12834765219825428,-3.0451648270399456,111.46555740295317,0.7518843980943967,0.030953615861250578,31.98548368193083
2026-09-17T07:24:17.632871,1.36,1.36,trip2_return,return,-0.31845431598622825,-0.5798923588282187,0.38152192052391587,-0.012024771726324058,-0.18711248045121745,-0.9555881893356571,0.24984343147503038,-1.2531469942718092,-9.723043831170443,-0.02566283124433809,-0.013840762930696492,-0.014841709828448927,-0.030243317810166388,-0.015998629047878132,-0.01514711420254065,-13.16721508416496,-5.168148072275268,-28.55042950779146,-185.148325560624,77.42445080081994,-387.63547883390504,-0.04881740059242413,-0.015882852625111795,0.06332813785028407,0.9966715323256219,0.02569035732005576,0.12813578561490144,-3.0453583008246254,111.4300936331839,0.7637062753689203,0.03271733449734246,31.862396844069863
2026-09-17T07:24:17.642871,1.37,1.37,trip2_return,return,-0.20585237359635483,-0.5903690354376966,0.42442237880983247,0.0006005695007433797,-0.1873352748430253,-0.9472379889679413,0.24596146887499631,-1.25004450718725,-9.723541442625244,-0.03874046753366818,-0.06874259782734614,0.0017165198764053356,-0.04332095409949648,-0.07090046478214955,0.001411115921124592,-13.120369419563962,-5.1586540493185336,-28.6005371236929,-185.12868080204362,77.39763765488837,-387.7359194852257,-0.048769145873353195,-0.0156736868632607,0.06317947166576902,0.9966866409814723,0.02529007525941413,0.12781681480007734,-3.0454266812071764,111.46365452684962,0.7556752962440193,0.07892600978933083,31.8864631006657
2026-09-17T07:24:17.652871,1.38,1.38,trip2_return,return,-0.13962394171154066,-0.6257920524608511,0.32209610274138734,0.010021224602618482,-0.1885811778624683,-0.9513683411785716,0.2370807106481097,-1.2459094179249777,-9.72429178922478,-0.04874560271709138,-0.10663957080571397,0.021709765931273654,-0.05332608928291968,-0.10879743776051742,0.021404361455990513,-13.078072018854495,-5.157689325685347,-28.62126135012834,-185.0720633796089,77.42117147198526,-387.79005730086595,-0.04880582275018508,-0.01521211195304127,0.06298887934542236,0.9967040605889058,0.024375441708075995,0.1273916984591381,-3.04529125906145,111.52315653322246,0.7175349729618917,0.11924531765511835,31.887526216108135
2026-09-17T07:24:17.662871,1.39,1.39,trip2_return,return,-0.17327339803581215,-0.699329791917483,0.1267579204081343,0.009826899761899774,-0.19534763217839826,-0.9712748591446044,0.22642071892527468,-1.2407995060980996,-9.725199322762524,-0.059174661488407526,-0.10053679095344165,0.037893562865349,-0.06375515014942736,-0.10269465790824514,0.03758815902634138,-13.111303187687172,-5.148001813919372,-28.67945634565618,-185.10173841012124,77.40290252591794,-387.7895056248493,-0.048929146268163734,-0.014662689733186142,0.06275150704640231,0.9967212210737074,0.023277673978109526,0.12686639128627422,-3.0449699166667465,111.43714374695449,0.7315417956046134,0.1226589132681103,31.951829528807448
2026-09-17T07:24:17.672871,1.4,1.4,trip2_return,return,-0.256909850142677,-0.7380692679483407,-0.040666000039597125,-0.0001346491797108767,-0.2013519813085587,-0.9905432260400302,0.21776070489219249,-1.2347242620158119,-9.726170940908505,-0.06879202894630146,-0.06518213529917806,0.047398150247203404,-0.07337251923742012,-0.06734000225398155,0.047092747223245204,-13.132731424784817,-5.071607903618074,-28.812389398891007,-185.16957035752844,77.48335801407983,-387.963307963137,-0.04911967936001823,-0.014217049471766323,0.06245892912985299,0.9967366827682416,0.022385427077307236,0.12624189205892739,-3.044526318816159,111.11523290442693,0.7825615879592819,0.10596055235589139,32.06779730940214
2026-09-17T07:24:17.682871,1.41,1.41,trip2_return,return,-0.300016855421832,-0.7427048217682233,-0.137479632083338,-0.008348391228703808,-0.2010686886945504,-1.0029601703783055,0.21272949766801613,-1.2277432640927526,-9.727166197296507,-0.07642845466322064,-0.0259264221672009,0.051782801463841156,-0.08100894495433927,-0.028084288059374587,0.05147739843988296,-13.047855288806158,-5.030716392373911,-28.789291573228255,-185.08501018239852,77.5689673015509,-388.00870073230686,-0.04935622663758429,-0.013957056581451743,0.062110462667455124,0.9967504471485911,0.021866150655619497,0.12552435429803885,-3.0440134715303873,111.08506263293914,0.8127245628457053,0.09589028405445199,32.00590483561553
2026-09-17T07:24:17.692871,1.42,1.42,trip2_return,return,-0.2811324223822565,-0.7675773770463458,-0.2382830731982386,-0.009410167287791059,-0.20098703145176042,-1.0115361983203432,0.2116441301511196,-1.2206443348616702,-9.72808339749588,-0.07033080892005815,0.01963191043974114,0.06104981074089737,-0.07491129921117674,0.017474044277378992,0.06074440557653153,-12.990982055664062,-5.034019470214844,-28.72802734375,-184.97439430882082,77.55639006939654,-387.84377081282196,-0.04964087327934812,-0.013900967242591544,0.06174555773151171,0.9967597668998326,0.021752561822753574,0.1247947579549746,-3.0434295077952376,111.18140289231567,0.8514630301079786,0.09517832727235301,31.92814623275732
2026-09-17T07:24:17.702871,1.43,1.43,trip2_return,return,-0.2765372290521723,-0.7803880107023073,-0.3252830511921182,-0.0050248973031446365,-0.20427783027799595,-1.0234581719609095,0.21503416852590385,-1.215197828333996,-9.728691039320898,-0.04364121073487981,0.0674282257190227,0.07228979970508526,-0.04822169887045767,0.06527035876421919,0.07198439295583675,-13.026766378241767,-4.974529027202613,-28.773038070742633,-185.0795354225919,77.69571560144082,-387.97846472477556,-0.04999161295255064,-0.014081467197610721,0.06145311923942749,0.9967577765193055,0.022099488165590764,0.12423503146795153,-3.0427427378803813,110.90052641380352,0.8895433377259437,0.1080598724755078,31.973900311600655
2026-09-17T07:24:17.712871,1.44,1.44,trip2_return,return,-0.326503784536906,-0.7642093596232616,-0.29994256116317847,-0.008078015202172,-0.20288284634868106,-1.0267722558262977,0.22232260300254789,-1.213081476548065,-9.728790901643071,-0.0037677173674962802,0.09701315079671329,0.0774157232711373,-0.008348203933324621,0.09485528384190983,0.0771103165218888,-13.034413787093012,-4.865998677790771,-28.816449639384864,-185.0378700565414,77.78978978580425,-387.9887113027129,-0.05039880891112597,-0.014472956969290823,0.0613204000738712,0.996739836723548,0.022848050356375917,0.12401754629557933,-3.041970041639757,110.47111146766954,0.8835078984648892,0.1241730298062364,31.99940086508849
2026-09-17T07:24:17.722871,1.45,1.45,trip2_return,return,-0.37794144451069334,-0.7528797694762746,-0.17768382132569946,-0.01378589966290814,-0.2002878785661329,-1.0158974759234127,0.2308336999560979,-1.2149843328226653,-9.728354890569648,0.03676595605909818,0.09222593724727624,0.07881707608699792,0.032185469493269885,0.09006807029247284,0.07851166933774943,-13.009059448242187,-4.845295206705729,-28.847000732421876,-185.02128065943378,77.70819452674479,-388.02896873966324,-0.050823896215848256,-0.014938526125127409,0.06138983619983139,0.9967071084436027,0.023723484663997086,0.12421308772326733,-3.041172679404537,110.428135221389,0.8609525092166123,0.12676549415744687,32.01346536419282
2026-09-17T07:24:17.732871,1.46,1.46,trip2_return,return,-0.40218522568676784,-0.7712685917578134,-0.021384309583450826,-0.01632104185368043,-0.201638781891691,-1.000503094055066,0.23739482483446417,-1.2204626331673378,-9.727511608810552,0.06905692792708826,0.060029080786466044,0.07818969988692512,0.06447643916056417,0.057871213831662584,0.07788429313767661,-13.011449365943927,-4.80832926821941,-28.876914619854386,-185.03768105273204,77.85077826632843,-388.07501854342155,-0.05123421302334803,-0.015313331425975494,0.06164730842936223,0.9966645206186139,0.02439964439438042,0.12477608236850361,-3.0403960665638006,110.2814887312855,0.8700951011752438,0.12035771268681766,32.03582436767467
2026-09-17T07:24:17.742871,1.47,1.47,trip2_return,return,-0.44227896780643317,-0.8140130590081873,0.1137947530497095,-0.01892570892827087,-0.20589613306672183,-0.9840390162579246,0.24038249064705558,-1.228179520294971,-9.726467080139402,0.08328784936029575,0.01982021492530317,0.07337389312247942,0.07870735906917714,0.017662349009141907,0.07306848637323092,-12.92950118030912,-4.69895915188857,-29.08741848498914,-184.83114428204541,77.96773352653605,-388.50474429565605,-0.05161825593685133,-0.01551041588365086,0.06202889090557133,0.9966179806456327,0.024709240172159808,0.12556919426535962,-3.0396517736834228,109.97181801589585,0.9333687328282617,0.11275386894779958,32.176546303225585
2026-09-17T07:24:17.752871,1.48,1.48,trip2_return,return,-0.47454747165539796,-0.8398194595766789,0.18629725452779328,-0.02397553740858986,-0.21083756106788287,-0.9739163419562069,0.2397562212420636,-1.2363512313323408,-9.725447157850445,0.07917427862567998,-0.01425565786811314,0.061312016977174436,0.07459378833456139,-0.016413523006976936,0.06100661245864136,-12.804065558697776,-4.681714123783534,-29.250046263990967,-184.74406167601907,77.85223267498205,-388.4318412298076,-0.05195407356465944,-0.015521581650740385,0.06244388569740318,0.9965744407128386,0.02464746521259512,0.12640913615675534,-3.038981597487494,110.08510285207352,0.9824452628939635,0.10114817646877687,32.271159700479885
2026-09-17T07:24:17.762871,1.49,1.49,trip2_return,return,-0.4586328243809226,-0.8440144667689246,0.20864272116169555,-0.024044929192614195,-0.21264706884897716,-0.9706118491601716,0.23687456679407795,-1.2434803049027472,-9.724609035598725,0.06219621708375415,-0.02977416486057073,0.04485718865454202,0.05761572903854738,-0.031932031075685006,0.04455178563058381,-12.770967959729813,-4.64721905604957,-29.151086357251675,-184.80816066092456,77.9966919186391,-388.1543056341857,-0.05220724749814729,-0.015409858938168994,0.06281270590005837,0.9965397651542489,0.024353438906598933,0.12714197972397934,-3.0384616111057072,109.99579919541571,0.9829731801064622,0.08226200633745258,32.16333476788905
2026-09-17T07:24:17.772871,1.5,1.5,trip2_return,return,-0.4073784283275322,-0.8306360276151139,0.1979033485063313,-0.020026847798263577,-0.2129980731738106,-0.9705558527564659,0.2338726213230965,-1.24838981324945,-9.724053030537457,0.035035759664710744,-0.021380308134016417,0.02628754531704932,0.03045527309888241,-0.02353817395830241,0.025982141162573608,-12.861417002195658,-4.664571381984964,-29.064922796188892,-184.98544826622998,77.84963215850719,-388.1977711514237,-0.05236726948987591,-0.015280193581648085,0.06306964380982343,0.9965171372334668,0.024046302465790467,0.12764669044602722,-3.0381255257654387,109.93424138336894,0.9460862167840968,0.04874071265364082,32.123885360124504
2026-09-17T07:24:17.782871,1.51,1.51,trip2_return,return,-0.3129230610045613,-0.8073625874385952,0.1876727014602831,-0.0130500177078658,-0.2101155251960138,-0.9732549479020561,0.2326304070204738,-1.2499258762256678,-9.723885694343148,-0.005860357562236391,0.0007454547576765881,0.012934626552545129,-0.010440844128064695,-0.001412410334481712,0.01262922223491866,-12.911612103274553,-4.6266173187802995,-29.024771441843093,-184.9378404509383,78.02400062889132,-388.13607068317106,-0.052454154508397126,-0.015226512063905536,0.06315029087977249,0.996508281835619,0.023919043862715053,0.12780460611298797,-3.0379444593620555,109.71375212989895,0.8859888444994148,0.01421984731306245,32.10222223104024
2026-09-17T07:24:17.792871,1.52,1.52,trip2_return,return,-0.20002783588934248,-0.7739037785880605,0.16291893030263463,-0.00040612356951163044,-0.20786010862004664,-0.972664711356708,0.23330918014939836,-1.246945507633519,-9.724251615651022,-0.057089713365258705,0.014602630567862382,0.012144110263752174,-0.061670202222180684,0.01244476490293065,0.011838706308471413,-12.89625855040145,-4.6226161749476535,-28.904169255704836,-184.90892033601415,77.91581049405531,-387.9513017406937,-0.052516491138806874,-0.015256904538877547,0.06299486841194565,0.9965143709832391,0.023987903943681707,0.12749820520401883,-3.0378210403980237,109.72001123324598,0.8157700481719136,0.06016603365460481,31.98645127647209
2026-09-17T07:24:17.802871,1.53,1.53,trip2_return,return,-0.11124552391142857,-0.7105162201653717,0.08401728469943316,0.009594450869901752,-0.20240563626766023,-0.9786094295161293,0.23434257447246726,-1.2389952647141826,-9.725241976395175,-0.10692396735374546,0.007180657968747676,0.02711991843692216,-0.11150445764486407,0.005022792377688084,0.02681451505820306,-12.807414076672138,-4.607792569884706,-28.99380810941357,-184.75797472591088,78.00077852493682,-388.2712078588313,-0.05261723641448982,-0.015294098700287546,0.06258334297156541,0.9965344159433486,0.024091659016970607,0.12668092922011698,-3.0376182621337047,109.78728634018064,0.7240633741853546,0.1105431437021504,32.02971302375219
2026-09-17T07:24:17.812871,1.54,1.54,trip2_return,return,-0.06533819392400705,-0.6313156801293738,-0.04373661217951688,0.016550640332206577,-0.19272567557261278,-0.990092753713392,0.2334439838962384,-1.2267057705844013,-9.726820434207719,-0.14653130634450967,-0.01729572868854685,0.05442110189709881,-0.15111179199317193,-0.01945359386845902,0.054115696551912444,-12.774906971610143,-4.508514493785883,-29.04170716683498,-184.8054182605989,78.13270791713798,-388.17044931359146,-0.05282543932106033,-0.015227315642473406,0.06195310679409695,0.9965638034653982,0.0239954322809049,0.12541774163208044,-3.037183419590316,109.43881385619383,0.6361929414944859,0.15726481584127702,32.04599360666111
2026-09-17T07:24:17.822871,1.55,1.55,trip2_return,return,-0.07578650921416351,-0.5747683231105578,-0.21709457809038077,0.017465610106434114,-0.1836689970063009,-1.0062400067369976,0.22977617162138786,-1.2115189471703944,-9.728809879792047,-0.1678431490832356,-0.037745044987887236,0.08520308816579196,-0.17242363192377366,-0.039902911248150354,0.08489768141654346,-12.755435872834147,-4.39600690730955,-29.139530555273087,-184.76108913374935,78.2399643835319,-388.3758458079226,-0.05317541597891772,-0.015019644670461433,0.061179894904654704,0.996596109699861,0.023613750234512076,0.12385701713771759,-3.0364440785958933,109.01538074147436,0.6190575708820881,0.19197806475819734,32.1113416414947
2026-09-17T07:24:17.832871,1.56,1.56,trip2_return,return,-0.14156906568273936,-0.5800480853401526,-0.42679967097993365,0.012332368459193596,-0.18025767391987862,-1.028253929188407,0.22494423307322065,-1.1953402052528634,-9.730923689321255,-0.16780657677940738,-0.03373639309910969,0.11050741138518347,-0.17238705961994544,-0.03589425887823329,0.11020200463593498,-12.639080614898894,-4.219386059034947,-29.221435776275545,-184.59412785537623,78.45740455431147,-388.3945481968485,-0.053662609890690674,-0.014757616944477296,0.06035727686412854,0.9966240696327712,0.023112339706098137,0.12219468278627119,-3.0354218015196217,108.45837103775838,0.7339315641213698,0.20373777116876238,32.11606897383439
2026-09-17T07:24:17.842871,1.57,1.57,trip2_return,return,-0.21879386083813226,-0.5866729287329774,-0.589232513620885,0.003250916513549147,-0.18109030412528987,-1.0479807280124411,0.22112377159545898,-1.1801383449010332,-9.732867504415168,-0.14868032955324342,-0.014811224854372267,0.12355090997199104,-0.15326081239378145,-0.016969089946530604,0.12324550795562243,-12.646618477018347,-4.098652345393676,-29.140820134252508,-184.69351760586198,78.52438850525299,-388.24059210104,-0.054252525634626785,-0.014555357208446943,0.05958076456205648,0.9966418301140081,0.02271538936945077,0.12063301923707519,-3.034201250875563,107.95757422494523,0.8597969725211713,0.19388151054872374,32.03003759049494
2026-09-17T07:24:17.852871,1.58,1.58,trip2_return,return,-0.2961447338317597,-0.5913413446844312,-0.6401079454949132,-0.004532317658657802,-0.1797158924881246,-1.0579368203218507,0.21910552182400422,-1.1673787846165018,-9.734452885135669,-0.11894778836850703,0.0019345510670751233,0.11918616181430092,-0.12352827597188776,-0.00022331432276085335,0.11888075775279029,-12.693941121127061,-4.073479911397846,-29.142607316679758,-184.73731260129202,78.51022872984714,-388.3006409711995,-0.054871138566347843,-0.01445286598275911,0.05892421002336192,0.9966484888316641,0.022504457053132164,0.1193224734957451,-3.0329367197342467,107.7914193783076,0.9203936501275929,0.1683973278101971,32.047167440967364
2026-09-17T07:24:17.862871,1.59,1.59,trip2_return,return,-0.3582556118048169,-0.6115082786982187,-0.637489407835764,-0.01279285302692294,-0.1798733144407812,-1.0573324035276321,0.21822281576856076,-1.1575898482461133,-9.735642244121967,-0.08778566025362139,0.0038069717852353673,0.10011011277922108,-0.09236615054474,0.00164910635848165,0.09980470602997259,-12.663953988753178,-3.9055396007391634,-29.239898084746574,-184.67631875492364,78.74225566729568,-388.42902158555427,-0.05543146664993938,-0.014412699077143064,0.05841757273749614,0.9966478885774092,0.02241108359844389,0.11831718280727069,-3.0317987520060803,107.13741528654634,0.9532482380832891,0.13320228924836908,32.102968869071375
2026-09-17T07:24:17.872871,1.6,1.6,trip2_return,return,-0.36480163087419304,-0.6191343103585273,-0.6923566987949192,-0.015556856129142356,-0.18068829320134838,-1.060160735408251,0.21727359710625274,-1.1509176492161899,-9.736454927037292,-0.05275366640711597,0.0014091464481441247,0.0802303345081408,-0.057334154286493674,-0.0007487188871068045,0.0799249277588923,-12.698014456237026,-3.782931208995771,-29.32956110134159,-184.73477976177577,78.84110916449933,-388.5123616405831,-0.0558879462046904,-0.01437162439902776,0.058072216210205654,0.9966431716444909,0.022311771833141703,0.11763204072199476,-3.0308714877511083,106.5899300437131,0.9978804149384829,0.09603042011984411,32.183431980758805
2026-09-17T07:24:17.882871,1.61,1.61,trip2_return,return,-0.34814436251930964,-0.5542572073016159,-0.7387196119217406,-0.013279392646501907,-0.17788026947806795,-1.067940886044916,0.21726406143275145,-1.1479543591731862,-9.736805601913645,-0.012217613742135258,0.019031784304997395,0.06377791998665727,-0.016798100611296534,0.016873919131675012,0.063472515664073,-12.689569456099733,-3.732342013998627,-29.26798015552113,-184.71794237172702,78.85969540144346,-388.4040505184005,-0.05625097556727342,-0.014383621954647775,0.05791536479920297,0.9966317021284097,0.0223099875378228,0.11732776998165012,-3.0301404690285847,106.38984285688599,0.9869712326291835,0.06766906218655919,32.118066758050944
2026-09-17T07:24:17.892871,1.62,1.62,trip2_return,return,-0.3438406789519106,-0.4242606532859922,-0.6348205535689195,-0.012713893293030189,-0.16639610988791098,-1.064985078876166,0.21937870375700325,-1.1486422114901003,-9.736676973586318,0.019024986654554765,0.036016643220799054,0.04999068993803037,0.01444449992830356,0.03385877690768737,0.04968528691407216,-12.700408920934676,-3.687371684798847,-29.307399136956754,-184.7225524241906,78.90218350328766,-388.45034362199493,-0.056542822327186396,-0.014510477533430138,0.057940290773042746,0.9966118993821835,0.022527358120468507,0.11739839821724724,-3.0295679964795617,106.18998800622524,0.8373891864971252,0.06448424448328915,32.15308291398675
2026-09-17T07:24:17.902871,1.63,1.63,trip2_return,return,-0.3571779914816795,-0.3144996190299206,-0.3546363866261456,-0.013516673362378369,-0.1521745160912609,-1.0422731653021378,0.22167941036307767,-1.1508753827811542,-9.736361041600109,0.018211373184645326,0.01570127631275103,0.03309842483957029,0.013630886004534251,0.013543410432942384,0.032793020587046605,-12.643854261999856,-3.685291653444209,-29.374729452447074,-184.66860597659723,78.89559750660688,-388.550848920393,-0.05675893796700946,-0.014646994920808405,0.05804480417937504,0.9965915357900773,0.022764268390664973,0.11762769763692144,-3.029149918628549,106.25012780303453,0.5935091361454353,0.04091075552932821,32.19197346504403
2026-09-17T07:24:17.912871,1.64,1.64,trip2_return,return,-0.3349042756249052,-0.26865057447613516,-0.056548324259123935,-0.014014104344329743,-0.1451866433892972,-1.0092042805405166,0.22030770290837765,-1.1509349731314875,-9.73638516404543,-0.022945428152263775,-0.042668509925027256,0.01739430183447769,-0.027525915031386537,-0.04482637633156544,0.017088897565902452,-12.633981439395269,-3.6978489481425436,-29.289638620007903,-184.6395624116627,78.87315416051926,-388.43879372949465,-0.05687814570569036,-0.01458414339476918,0.05805004999518707,0.9965853556008534,0.022623398887643087,0.11763381510660531,-3.0289025390950526,106.31427081374599,0.43304932510594557,0.051474810816765144,32.11190595939334
2026-09-17T07:24:17.922871,1.65,1.65,trip2_return,return,-0.2641703231195502,-0.2575191779273525,0.0879522442608873,-0.007837523522739686,-0.1436620820362297,-0.9862089197058768,0.2122143182179722,-1.1454212049847103,-9.737213164048207,-0.09452754646244708,-0.1219015988122082,0.00545060538249444,-0.09910803551525017,-0.12405946576701163,0.005145201271777744,-12.699401854738262,-3.710997003689114,-29.290820340842917,-184.73331813027255,78.86204843090734,-388.4084350664878,-0.05691222088177624,-0.014156991027169798,0.05779075256468969,0.9966046395825013,0.021790726236469844,0.11706768274062142,-3.028781431655526,106.28936784125675,0.3792593886616306,0.15435402791057423,32.14029344092951
2026-09-17T07:24:17.932871,1.66,1.66,trip2_return,return,-0.21895312742646328,-0.19322070314570325,-0.0028001322767776827,-0.002795143880792751,-0.1398050217140513,-0.9856342966295445,0.19664610369021931,-1.1321731174650385,-9.739084531914463,-0.17919313218679583,-0.1933686275102298,-0.0008570519373229157,-0.1837736174736414,-0.19552649446503326,-0.0011624561254343156,-12.712933303289812,-3.6766744069675705,-29.370586636998457,-184.7567520152173,78.89175290225819,-388.531291700732,-0.056887319148591325,-0.013322335406202146,0.05715816432975431,0.9966540485794777,0.020188770666687096,0.11570757608305489,-3.028729450553284,106.13013699622968,0.29203176689311816,0.2636329631630456,32.21440620700897
2026-09-17T07:24:17.942871,1.67,1.67,trip2_return,return,-0.18122108267409476,-0.0689768118175717,-0.27525661994963435,-0.0016101101539638114,-0.12661931305632926,-1.0091347875196968,0.1764335350928668,-1.110994198086049,-9.741905570809445,-0.25426804599934605,-0.21265091754233031,-0.0017967147374595344,-0.2588485389088243,-0.21480878449713373,-0.0021021189255709346,-12.794954640030648,-3.528490110405329,-29.45446863034041,-184.80304314616404,79.04050753478039,-388.6135545893204,-0.05683460532644315,-0.012225971361888627,0.05613371050536392,0.9967293312662899,0.018108935822944056,0.11353369942983509,-3.028703514580619,105.41852073071689,0.3366973243139678,0.33147530847978457,32.30676135107599
2026-09-17T07:24:17.952871,1.68,1.68,trip2_return,return,-0.1620270603587547,0.07607094711357544,-0.5525063587996505,3.536824763427589e-05,-0.10959394636445242,-1.0410766196122503,0.15750468649090038,-1.0837230773101838,-9.74529973725827,-0.30272853709850955,-0.1690602386896657,0.0031035066505878377,-0.30730903484020883,-0.17121810564446913,0.0027981023042128695,-12.835224131978537,-3.3074774056690885,-29.581246893087737,-184.8935311660298,79.2793940733947,-388.72865803096687,-0.05680224347088644,-0.011178524089038477,0.054793945523332506,0.9968180221433856,0.016160842925239758,0.1107352755225367,-3.0286449557311066,104.4490517962731,0.5807777834915038,0.3467500010571603,32.41500506026412
2026-09-17T07:24:17.962871,1.69,1.69,trip2_return,return,-0.10097804171921194,0.16381050733088545,-0.7090887456248577,0.0009238381984089964,-0.09381204848800791,-1.0629919638013523,0.14456440525557046,-1.0529450298411402,-9.748874348471368,-0.32484671858063013,-0.09233381017514232,0.006586289816326162,-0.32942721632232935,-0.09449167712994583,0.006280885395384062,-12.908007248044257,-3.1503744474909046,-29.5452337612731,-184.91157972894703,79.46152228056137,-388.7558712968321,-0.05680832038544249,-0.01042844710210473,0.053257512352066744,0.996909072886837,0.014827826602608929,0.10757801313789637,-3.0285456134260693,103.71643431127852,0.7347362087125441,0.3377784810902065,32.39540628365754
2026-09-17T07:24:17.972871,1.7,1.7,trip2_return,return,0.029660610135011728,0.22256003851375314,-0.7384283546374725,0.011258726821981598,-0.08430708113007743,-1.0704880588058938,0.1393707251570427,-1.0212184611907402,-9.752325453883056,-0.3237987671465492,-0.013583826084490387,0.012300830122906604,-0.32837926488824837,-0.015741691758056526,0.011995426022273915,-12.900461408015367,-2.90511803278198,-29.401611667079333,-184.97038676867436,79.62833131371578,-388.55491628350126,-0.05685483874343709,-0.010072755529862525,0.05165025127807128,0.9969946431402756,0.014290072392197983,0.10432455452822526,-3.0284097983039717,102.68852585332277,0.7718090161882207,0.32431693196382994,32.23843023389669
2026-09-17T07:24:17.982871,1.71,1.71,trip2_return,return,0.14153452322122637,0.32780948652140396,-0.6454341097512897,0.025011155078826303,-0.07359506055739452,-1.0657463032638577,0.14042133575065763,-0.9903575556730935,-9.755493743241711,-0.3098009588003587,0.03385183572394621,0.0275599787433763,-0.31438145654205785,0.031693969343073815,0.02725457543245261,-12.881576538085938,-2.8110580444335938,-29.35382080078125,-184.8701929549399,79.86936515453225,-388.53231628832407,-0.05696958298478201,-0.010041288247525168,0.0500689279939922,0.9970690756383946,0.014393065298555243,0.10116091865614844,-3.028171230876262,102.31027562885214,0.737615259296692,0.3128612045042305,32.1789349892149
